Time, GyroscopeX, GyroscopeY, GyroscopeZ 
0.0, -8.05, -4.31, 3.078
0.010526315789473684, -7.7, -4.411, 2.847
0.021052631578947368, -7.28, -4.724, 3.005
0.031578947368421054, -6.72, -4.772, 3.281
0.042105263157894736, -5.67, -5.36, 3.391
0.05263157894736842, -4.9, -6.345, 4.141
0.06315789473684211, -4.27, -6.731, 4.713
0.07368421052631578, -3.64, -7.006, 4.664
0.08421052631578947, -3.78, -7.169, 4.778
0.09473684210526316, -4.13, -7.023, 5.159
0.10526315789473684, -4.48, -6.978, 4.101
0.11578947368421053, -5.04, -6.297, 2.657
0.12631578947368421, -5.81, -5.912, 2.085
0.1368421052631579, -6.37, -4.667, 0.67
0.14736842105263157, -7.49, -4.014, -0.21
0.15789473684210525, -7.98, -3.293, 0.13
0.16842105263157894, -8.68, -2.688, 0.734
0.17894736842105263, -8.33, -2.165, 0.187
0.18947368421052632, -7.49, -1.18, -0.563
0.2, -5.88, -0.791, -0.353
0.21052631578947367, -3.99, -0.401, -0.142
0.22105263157894736, -2.66, -0.296, -0.337
0.23157894736842105, -1.82, -0.126, -0.093
0.24210526315789474, -1.47, -0.154, 0.47
0.25263157894736843, -2.31, -0.401, 1.067
0.2631578947368421, -3.29, -0.908, 2.328
0.2736842105263158, -4.9, -1.528, 3.427
0.28421052631578947, -6.72, -1.248, 4.258
0.29473684210526313, -8.26, -1.147, 4.489
0.30526315789473685, -10.08, -0.94, 5.734
0.3157894736842105, -11.13, -0.802, 8.175
0.3263157894736842, -11.48, -0.684, 10.328
0.3368421052631579, -11.55, -0.963, 13.122
0.3473684210526316, -11.97, -0.578, 13.759
0.35789473684210527, -12.18, 0.217, 13.686
0.3684210526315789, -12.25, 0.922, 13.312
0.37894736842105264, -12.04, 1.591, 13.146
0.3894736842105263, -10.99, 2.224, 11.978
0.4, -8.68, 2.645, 9.991
0.4105263157894737, -5.81, 3.48, 6.869
0.42105263157894735, -1.68, 4.469, 3.276
0.43157894736842106, 2.03, 5.393, 0.453
0.4421052631578947, 5.46, 5.251, -0.354
0.45263157894736844, 7.98, 5.32, -0.341
0.4631578947368421, 9.1, 4.513, -0.199
0.47368421052631576, 8.33, 3.443, -0.175
0.4842105263157895, 5.88, 1.873, 0.259
0.49473684210526314, 2.87, 0.726, 1.123
0.5052631578947369, 0.35, -0.284, 2.011
0.5157894736842106, -2.24, -1.508, 2.506
0.5263157894736842, -4.9, -2.826, 3.127
0.5368421052631579, -6.51, -3.836, 2.807
0.5473684210526316, -6.93, -4.464, 2.34
0.5578947368421052, -7.42, -4.858, 1.347
0.5684210526315789, -7.56, -5.527, 0.305
0.5789473684210527, -7.14, -6.314, -0.474
0.5894736842105263, -6.93, -6.967, -0.802
0.6, -7.49, -7.672, -1.637
0.6105263157894737, -7.98, -8.727, -2.107
0.6210526315789474, -8.12, -9.238, -2.837
0.631578947368421, -8.12, -9.363, -2.93
0.6421052631578947, -8.82, -9.591, -3.255
0.6526315789473685, -9.73, -9.761, -3.498
0.6631578947368421, -10.29, -10.126, -3.847
0.6736842105263158, -10.85, -10.402, -3.895
0.6842105263157895, -11.55, -10.414, -3.826
0.6947368421052632, -12.18, -10.637, -3.368
0.7052631578947368, -12.04, -10.961, -3.141
0.7157894736842105, -12.6, -11.772, -2.573
0.7263157894736842, -12.39, -12.048, -1.414
0.7368421052631579, -12.39, -12.376, -0.761
0.7473684210526316, -12.32, -12.412, -0.554
0.7578947368421053, -12.39, -12.161, -0.367
0.7684210526315789, -12.88, -12.153, -0.01
0.7789473684210526, -12.53, -11.269, 0.216
0.7894736842105263, -12.25, -10.49, 0.638
0.8, -11.76, -9.598, 1.222
0.8105263157894737, -11.48, -8.483, 1.347
0.8210526315789474, -10.78, -7.112, 1.234
0.8315789473684211, -10.15, -6.184, 1.611
0.8421052631578947, -9.31, -4.683, 1.164
0.8526315789473684, -8.89, -2.94, 0.548
0.8631578947368421, -8.54, -0.985, -0.458
0.8736842105263158, -8.26, 0.71, -0.799
0.8842105263157894, -7.84, 2.615, -0.321
0.8947368421052632, -7.98, 4.509, 0.226
0.9052631578947369, -8.19, 6.646, 0.603
0.9157894736842105, -7.7, 7.98, 1.905
0.9263157894736842, -7.14, 9.023, 3.652
0.9368421052631579, -5.39, 9.319, 5.197
0.9473684210526315, -3.22, 9.019, 6.495
0.9578947368421052, -0.98, 7.957, 8.085
0.968421052631579, 1.47, 6.761, 9.224
0.9789473684210527, 3.29, 4.446, 10.664
0.9894736842105263, 4.97, 2.601, 12.258
1.0, 5.67, 1.153, 13.211
1.0105263157894737, 5.53, 0.148, 13.673
1.0210526315789474, 4.62, -0.833, 13.998
1.0315789473684212, 3.5, -1.288, 13.349
1.0421052631578946, 2.94, -1.507, 12.173
1.0526315789473684, 2.31, -1.393, 11.127
1.063157894736842, 2.17, -1.13, 10.036
1.0736842105263158, 1.82, -1.065, 9.266
1.0842105263157895, 1.05, -0.627, 7.992
1.0947368421052632, 0.63, -0.238, 6.995
1.105263157894737, 0.0, 0.033, 6.261
1.1157894736842104, -0.49, 0.212, 5.653
1.1263157894736842, -1.05, 0.41, 4.124
1.1368421052631579, -1.61, 0.56, 2.871
1.1473684210526316, -2.38, 0.965, 1.379
1.1578947368421053, -2.45, 1.46, 0.186
1.168421052631579, -2.03, 2.287, -0.876
1.1789473684210525, -1.75, 2.591, -1.391
1.1894736842105262, -1.12, 3.029, -1.456
1.2, -0.21, 3.329, -1.545
1.2105263157894737, 0.42, 2.749, -1.079
1.2210526315789474, 1.19, 2.469, -0.702
1.231578947368421, 1.96, 1.699, -0.767
1.2421052631578948, 1.82, 1.067, 0.401
1.2526315789473683, 2.1, 0.6, 1.03
1.263157894736842, 3.15, 0.175, 1.026
1.2736842105263158, 3.99, -0.032, 0.989
1.2842105263157895, 5.04, -0.109, 0.62
1.2947368421052632, 6.23, -0.478, 0.698
1.305263157894737, 7.63, -0.823, 0.637
1.3157894736842106, 8.75, -1.066, 0.807
1.3263157894736841, 9.03, -1.658, 1.342
1.3368421052631578, 8.68, -2.283, 1.659
1.3473684210526315, 7.91, -3.057, 2.02
1.3578947368421053, 6.16, -3.625, 2.417
1.368421052631579, 4.62, -4.071, 2.125
1.3789473684210527, 2.8, -4.748, 1.935
1.3894736842105264, 1.61, -4.902, 2.405
1.4, 0.7, -4.598, 3.099
1.4105263157894736, -0.07, -4.172, 3.103
1.4210526315789473, -0.56, -3.937, 3.784
1.431578947368421, -0.91, -3.142, 4.919
1.4421052631578948, -1.4, -2.68, 5.925
1.4526315789473685, -1.47, -2.606, 6.719
1.4631578947368422, -1.47, -2.663, 6.638
1.4736842105263157, -0.98, -2.456, 6.675
1.4842105263157894, -0.49, -2.262, 6.78
1.4947368421052631, 0.07, -2.294, 6.561
1.5052631578947369, 0.91, -2.197, 6.01
1.5157894736842106, 1.75, -2.088, 5.389
1.5263157894736843, 2.52, -2.363, 5.341
1.5368421052631578, 2.73, -2.404, 4.765
1.5473684210526315, 3.01, -2.55, 4.384
1.5578947368421052, 3.08, -2.943, 4.599
1.568421052631579, 2.66, -2.838, 4.404
1.5789473684210527, 2.31, -2.672, 3.865
1.5894736842105264, 2.03, -2.441, 3.763
1.6, 1.54, -2.339, 2.786
1.6105263157894736, 1.05, -2.003, 2.49
1.6210526315789473, 0.91, -1.33, 1.898
1.631578947368421, 0.56, -0.855, 1.626
1.6421052631578947, 0.14, -0.421, 1.987
1.6526315789473685, -0.14, -0.194, 2.311
1.6631578947368422, -0.28, 0.041, 2.993
1.6736842105263159, -0.49, 0.515, 2.721
1.6842105263157894, -0.42, 1.14, 2.404
1.694736842105263, -0.42, 1.278, 2.429
1.7052631578947368, -0.21, 1.647, 2.352
1.7157894736842105, -0.28, 1.894, 1.756
1.7263157894736842, 0.0, 1.926, 1.975
1.736842105263158, 0.21, 1.533, 2.189
1.7473684210526317, 0.49, 0.759, 2.55
1.7578947368421052, 0.63, 0.56, 2.871
1.768421052631579, 0.63, -0.077, 3.256
1.7789473684210526, 0.91, -0.523, 2.964
1.7894736842105263, 0.77, -0.847, 3.191
1.8, 0.49, -1.147, 3.281
1.8105263157894738, 0.14, -1.792, 3.309
1.8210526315789475, 0.21, -2.031, 3.054
1.831578947368421, 0.21, -2.177, 2.673
1.8421052631578947, 0.35, -2.441, 2.555
1.8526315789473684, 0.0, -2.741, 2.644
1.8631578947368421, -0.07, -2.992, 2.458
1.8736842105263158, -0.21, -3.13, 2.433
1.8842105263157896, -0.42, -3.292, 2.547
1.894736842105263, -0.49, -4.103, 1.906
1.9052631578947368, -0.35, -4.148, 1.756
1.9157894736842105, -0.49, -4.331, 1.582
1.9263157894736842, -0.56, -4.529, 1.902
1.936842105263158, -0.63, -4.359, 2.146
1.9473684210526316, -0.49, -4.626, 2.454
1.9578947368421054, -0.42, -4.318, 2.722
1.9684210526315788, -0.7, -4.493, 2.904
1.9789473684210526, -0.56, -4.01, 2.989
1.9894736842105263, -0.28, -3.41, 2.811
2.0, -0.07, -3.033, 3.09
2.0105263157894737, 0.0, -2.4, 3.131
2.0210526315789474, 0.07, -1.784, 2.458
2.031578947368421, 0.35, -1.488, 2.794
2.042105263157895, 0.56, -1.139, 2.429
2.0526315789473686, 0.49, -0.527, 2.182
2.0631578947368423, 0.77, -0.166, 2.956
2.0736842105263156, 0.77, 0.24, 2.672
2.0842105263157893, 0.63, 0.475, 2.145
2.094736842105263, 0.49, 0.657, 2.319
2.1052631578947367, 0.56, 0.832, 2.137
2.1157894736842104, 0.35, 0.807, 2.275
2.126315789473684, 0.28, 1.083, 2.323
2.136842105263158, 0.07, 1.071, 2.392
2.1473684210526316, 0.28, 0.815, 2.632
2.1578947368421053, 0.21, 0.734, 2.688
2.168421052631579, 0.07, 0.572, 2.802
2.1789473684210527, 0.35, 0.596, 2.664
2.1894736842105265, 0.42, 0.58, 1.95
2.2, 0.7, 0.454, 1.857
2.210526315789474, 0.56, 0.029, 1.853
2.221052631578947, 0.84, -0.04, 1.841
2.231578947368421, 1.19, -0.259, 1.873
2.2421052631578946, 0.98, -0.247, 1.805
2.2526315789473683, 1.12, -0.454, 1.768
2.263157894736842, 0.98, -0.503, 2.044
2.2736842105263158, 0.56, -0.64, 2.019
2.2842105263157895, 0.42, -0.859, 2.052
2.294736842105263, 0.21, -0.79, 2.064
2.305263157894737, 0.07, -0.758, 2.283
2.3157894736842106, 0.0, -0.77, 2.352
2.3263157894736843, -0.21, -0.584, 2.101
2.336842105263158, 0.0, -0.689, 2.295
2.3473684210526318, 0.14, -0.462, 2.62
2.357894736842105, 0.0, -0.263, 2.299
2.3684210526315788, 0.0, -0.101, 2.186
2.3789473684210525, 0.07, 0.0, 2.417
2.389473684210526, 0.0, -0.109, 3.037
2.4, 0.0, -0.194, 3.52
2.4105263157894736, 0.0, 0.057, 3.706
2.4210526315789473, -0.14, 0.151, 3.581
2.431578947368421, -0.42, 0.576, 3.585
2.442105263157895, -0.21, 0.592, 3.09
2.4526315789473685, -0.07, 0.637, 3.24
2.463157894736842, 0.0, 0.588, 3.516
2.473684210526316, 0.14, 0.751, 3.402
2.4842105263157896, 0.21, 0.576, 3.585
2.4947368421052634, 0.21, 0.219, 3.593
2.5052631578947366, 0.14, 0.333, 3.755
2.5157894736842104, 0.21, 0.155, 4.363
2.526315789473684, 0.21, 0.126, 3.718
2.536842105263158, -0.14, -0.137, 3.601
2.5473684210526315, -0.14, 0.033, 3.844
2.557894736842105, 0.0, -0.21, 4.014
2.568421052631579, -0.35, -0.348, 3.99
2.5789473684210527, -0.49, -0.417, 3.978
2.5894736842105264, -0.49, -0.579, 4.092
2.6, -0.77, -0.531, 3.816
2.610526315789474, -0.77, -0.794, 3.698
2.6210526315789475, -1.4, -0.952, 3.386
2.6315789473684212, -1.4, -0.944, 3.743
2.642105263157895, -1.61, -0.847, 3.191
2.6526315789473682, -1.54, -0.709, 3.216
2.663157894736842, -1.54, -0.733, 3.354
2.6736842105263157, -1.12, -0.409, 3.126
2.6842105263157894, -1.26, -0.202, 3.163
2.694736842105263, -1.12, -0.06, 2.761
2.705263157894737, -1.12, 0.081, 2.36
2.7157894736842105, -1.26, -0.117, 2.68
2.7263157894736842, -1.75, -0.462, 2.62
2.736842105263158, -1.47, -0.292, 2.863
2.7473684210526317, -1.47, -0.3, 2.506
2.7578947368421054, -1.47, -0.288, 2.437
2.768421052631579, -1.33, -0.413, 2.344
2.778947368421053, -1.33, -0.312, 2.575
2.789473684210526, -1.4, -0.251, 2.23
2.8, -1.4, -0.02, 2.129
2.8105263157894735, -1.47, -0.101, 2.186
2.8210526315789473, -1.33, -0.125, 2.324
2.831578947368421, -1.54, 0.183, 2.591
2.8421052631578947, -1.54, 0.702, 2.469
2.8526315789473684, -1.61, 0.402, 2.559
2.863157894736842, -1.26, 0.6, 2.238
2.873684210526316, -0.7, 1.014, 2.311
2.8842105263157896, -0.56, 0.957, 2.23
2.8947368421052633, -0.56, 0.645, 2.388
2.905263157894737, -0.42, 0.678, 2.607
2.9157894736842107, -0.35, 0.341, 2.903
2.9263157894736844, -0.42, 0.086, 3.143
2.9368421052631577, -0.63, -0.202, 3.163
2.9473684210526314, -0.7, -0.105, 2.611
2.957894736842105, -0.91, -0.174, 2.599
2.968421052631579, -1.12, -0.36, 2.851
2.9789473684210526, -1.12, -0.324, 2.644
2.9894736842105263, -0.84, -0.336, 2.713
3.0, -0.98, -0.138, 2.392
3.0105263157894737, -1.12, -0.312, 2.575
3.0210526315789474, -1.4, -0.498, 2.826
3.031578947368421, -1.33, -0.486, 2.757
3.042105263157895, -1.54, -0.409, 3.126
3.0526315789473686, -1.61, -0.235, 2.944
3.0631578947368423, -1.47, -0.279, 2.794
3.0736842105263156, -1.4, -0.162, 2.53
3.0842105263157893, -1.4, -0.085, 2.899
3.094736842105263, -1.12, -0.085, 2.899
3.1052631578947367, -1.19, -0.271, 3.151
3.1157894736842104, -1.26, -0.336, 2.713
3.126315789473684, -1.12, -0.198, 2.737
3.136842105263158, -0.84, 0.045, 2.567
3.1473684210526316, -0.84, -0.3, 2.506
3.1578947368421053, -0.77, -0.186, 2.668
3.168421052631579, -0.77, -0.016, 2.911
3.1789473684210527, -0.84, -0.287, 3.645
3.1894736842105265, -0.7, -0.255, 3.864
3.2, -0.7, -0.133, 3.175
3.210526315789474, -0.77, -0.109, 3.037
3.221052631578947, -0.49, -0.004, 2.843
3.231578947368421, -0.42, -0.036, 2.624
3.2421052631578946, -0.35, -0.202, 3.163
3.2526315789473683, -0.35, -0.235, 2.944
3.263157894736842, -0.28, -0.142, 2.818
3.2736842105263158, -0.28, -0.028, 2.98
3.2842105263157895, -0.21, 0.179, 3.017
3.294736842105263, -0.14, -0.121, 3.106
3.305263157894737, -0.35, 0.199, 3.305
3.3157894736842106, -0.42, -0.032, 3.406
3.3263157894736843, -0.35, 0.061, 3.28
3.336842105263158, -0.49, -0.02, 3.337
3.3473684210526318, -0.42, -0.251, 3.439
3.357894736842105, -0.7, -0.32, 3.427
3.3684210526315788, -0.49, -0.32, 3.427
3.3789473684210525, -0.42, -0.352, 3.208
3.389473684210526, -0.35, -0.328, 3.07
3.4, -0.35, -0.385, 2.989
3.4105263157894736, -0.35, -0.129, 2.749
3.4210526315789473, -0.14, -0.036, 2.624
3.431578947368421, -0.14, -0.166, 2.956
3.442105263157895, -0.14, 0.021, 2.705
3.4526315789473685, -0.07, 0.422, 2.847
3.463157894736842, -0.21, 0.446, 2.709
3.473684210526316, 0.0, 0.686, 2.964
3.4842105263157896, 0.0, 0.71, 2.826
3.4947368421052634, 0.14, 0.641, 2.814
3.5052631578947366, 0.56, 0.479, 2.928
3.5157894736842104, 0.7, 0.459, 2.64
3.526315789473684, 0.49, 0.183, 2.591
3.536842105263158, 0.49, 0.15, 2.372
3.5473684210526315, 0.63, 0.357, 2.409
3.557894736842105, 1.05, 0.171, 2.66
3.568421052631579, 1.4, 0.207, 2.453
3.5789473684210527, 1.26, 0.057, 2.498
3.5894736842105264, 1.4, 0.219, 2.384
3.6, 1.33, 0.341, 2.903
3.610526315789474, 1.26, 0.215, 2.81
3.6210526315789475, 0.98, 0.077, 2.786
3.6315789473684212, 0.84, 0.008, 2.774
3.642105263157895, 0.42, -0.06, 2.761
3.6526315789473682, 0.49, 0.122, 2.936
3.663157894736842, 0.63, 0.077, 2.786
3.6736842105263157, 0.42, 0.057, 2.498
3.6842105263157894, 0.42, 0.207, 2.453
3.694736842105263, 0.42, 0.3, 2.328
3.705263157894737, 0.42, 0.24, 2.672
3.7157894736842105, 0.14, 0.426, 2.421
3.7263157894736842, 0.21, 0.227, 2.741
3.736842105263158, 0.07, 0.248, 3.029
3.7473684210526317, -0.14, 0.138, 3.649
3.7578947368421054, 0.0, 0.001, 3.625
3.768421052631579, 0.21, 0.106, 3.431
3.778947368421053, 0.28, 0.053, 2.924
3.789473684210526, 0.21, 0.191, 2.948
3.8, 0.21, 0.296, 2.753
3.8105263157894735, 0.35, 0.309, 2.684
3.8210526315789473, 0.14, 0.264, 2.534
3.831578947368421, -0.14, 0.734, 2.688
3.8421052631578947, -0.07, 0.665, 2.676
3.8526315789473684, 0.07, 0.629, 2.883
3.863157894736842, -0.07, 0.803, 2.701
3.873684210526316, 0.0, 0.621, 2.526
3.8842105263157896, 0.0, 0.714, 2.4
3.8947368421052633, -0.07, 0.714, 2.4
3.905263157894737, 0.0, 0.726, 2.332
3.9157894736842107, 0.14, 0.746, 2.619
3.9263157894736844, -0.07, 0.714, 2.4
3.9368421052631577, -0.14, 0.901, 2.149
3.9473684210526314, -0.21, 0.714, 2.4
3.957894736842105, -0.35, 0.702, 2.469
3.968421052631579, -0.35, 0.949, 1.873
3.9789473684210526, -0.42, 0.763, 2.125
3.9894736842105263, -0.35, 0.71, 2.826
4.0, -0.35, 0.686, 2.964
4.010526315789473, -0.35, 0.734, 2.688
4.021052631578947, -0.35, 1.047, 2.53
4.031578947368421, -0.28, 1.233, 2.279
4.042105263157895, -0.14, 0.982, 2.092
4.052631578947368, -0.28, 0.901, 2.149
4.063157894736842, -0.35, 0.876, 2.287
4.073684210526316, -0.28, 0.961, 1.804
4.08421052631579, -0.35, 0.75, 2.194
4.094736842105263, -0.7, 0.6, 2.238
4.105263157894737, -0.56, 1.002, 2.38
4.11578947368421, -0.63, 0.803, 2.701
4.126315789473685, -0.7, 0.84, 2.494
4.136842105263158, -0.77, 0.836, 2.919
4.147368421052631, -0.91, 0.455, 3.066
4.157894736842105, -0.91, 0.041, 2.993
4.168421052631579, -0.77, 0.065, 2.855
4.178947368421053, -0.84, 0.021, 2.705
4.189473684210526, -0.77, 0.171, 2.66
4.2, -0.63, 0.183, 2.591
4.2105263157894735, -0.42, 0.114, 2.579
4.221052631578948, -0.14, 0.365, 2.765
4.231578947368421, -0.14, 0.467, 2.997
4.242105263157895, -0.07, 0.341, 2.903
4.252631578947368, 0.07, 0.584, 2.733
4.2631578947368425, 0.07, 0.576, 2.376
4.273684210526316, 0.07, 0.807, 2.275
4.28421052631579, 0.07, 1.107, 2.185
4.294736842105263, 0.07, 1.132, 2.048
4.3052631578947365, 0.0, 0.937, 1.942
4.315789473684211, -0.14, 1.164, 2.267
4.326315789473684, 0.07, 1.152, 2.336
4.336842105263158, 0.07, 1.188, 2.129
4.347368421052631, 0.07, 1.387, 1.808
4.3578947368421055, 0.07, 1.805, 1.455
4.368421052631579, 0.07, 1.626, 2.064
4.378947368421053, 0.0, 1.663, 1.857
4.389473684210526, -0.07, 1.501, 1.971
4.4, -0.21, 1.797, 2.307
4.410526315789474, -0.21, 1.521, 2.258
4.421052631578948, -0.21, 1.845, 2.031
4.431578947368421, -0.49, 1.399, 1.739
4.442105263157894, -0.21, 1.549, 1.695
4.4526315789473685, -0.35, 1.951, 1.837
4.463157894736842, -0.28, 1.894, 1.756
4.473684210526316, -0.21, 1.801, 1.881
4.484210526315789, -0.07, 1.776, 2.019
4.494736842105263, 0.14, 2.007, 1.918
4.505263157894737, 0.21, 1.744, 1.8
4.515789473684211, 0.0, 1.744, 1.8
4.526315789473684, 0.14, 1.574, 1.557
4.536842105263158, 0.07, 1.525, 1.833
4.5473684210526315, -0.07, 1.57, 1.983
4.557894736842106, 0.07, 1.878, 2.25
4.568421052631579, 0.07, 1.821, 2.169
4.578947368421052, -0.07, 1.902, 2.112
4.589473684210526, 0.0, 1.971, 2.125
4.6, -0.07, 2.158, 1.873
4.610526315789474, -0.07, 1.947, 2.262
4.621052631578947, -0.21, 1.87, 1.893
4.631578947368421, -0.07, 1.707, 2.007
4.6421052631578945, 0.14, 1.302, 2.291
4.652631578947369, 0.14, 1.221, 2.348
4.663157894736842, 0.14, 0.986, 2.875
4.673684210526316, 0.56, 0.678, 2.607
4.684210526315789, 0.42, 0.937, 1.942
4.6947368421052635, 0.42, 1.172, 1.415
4.705263157894737, 0.21, 0.937, 1.942
4.71578947368421, 0.14, 0.844, 2.068
4.726315789473684, 0.21, 0.986, 1.666
4.7368421052631575, 0.0, 0.949, 1.873
4.747368421052632, -0.14, 1.456, 1.82
4.757894736842105, -0.35, 1.444, 1.889
4.768421052631579, -0.21, 0.986, 1.666
4.778947368421052, -0.28, 1.18, 1.772
4.7894736842105265, -0.14, 1.249, 1.784
4.8, 0.0, 1.03, 1.816
4.810526315789474, -0.14, 1.286, 1.577
4.821052631578947, -0.14, 1.075, 1.967
4.831578947368421, 0.0, 1.192, 1.703
4.842105263157895, 0.07, 1.123, 1.691
4.852631578947369, 0.07, 1.034, 1.391
4.863157894736842, 0.0, 1.322, 1.37
4.873684210526315, 0.07, 1.322, 1.37
4.88421052631579, 0.21, 1.529, 1.407
4.894736842105263, 0.0, 1.407, 2.096
4.905263157894737, 0.07, 1.209, 2.417
4.91578947368421, 0.0, 1.059, 2.461
4.926315789473684, -0.07, 0.921, 2.437
4.936842105263158, 0.07, 1.318, 1.796
4.947368421052632, 0.14, 1.444, 1.889
4.957894736842105, 0.14, 1.192, 1.703
4.968421052631579, 0.07, 1.03, 1.816
4.978947368421053, 0.21, 0.75, 2.194
4.989473684210527, 0.28, 0.763, 2.125
5.0, 0.28, 0.738, 2.263
5.010526315789473, 0.14, 0.795, 2.344
5.021052631578947, 0.07, 1.095, 2.254
5.031578947368421, 0.0, 1.322, 2.579
5.042105263157895, -0.35, 1.128, 2.473
5.052631578947368, -0.21, 0.734, 2.688
5.063157894736842, -0.28, 0.791, 2.769
5.073684210526316, -0.14, 0.641, 2.814
5.08421052631579, -0.42, 0.446, 2.709
5.094736842105263, -0.7, 0.138, 2.441
5.105263157894737, -0.21, 0.45, 2.283
5.11578947368421, -0.07, 0.6, 2.238
5.126315789473685, -0.42, 0.532, 2.226
5.136842105263158, -0.07, 0.645, 2.388
5.147368421052631, -0.14, 1.152, 2.336
5.157894736842105, 0.0, 1.371, 2.303
5.168421052631579, -0.07, 1.371, 2.303
5.178947368421053, -0.14, 1.845, 2.031
5.189473684210526, -0.07, 2.32, 1.76
5.2, -0.07, 2.689, 1.682
5.2105263157894735, -0.14, 2.948, 2.226
5.221052631578948, 0.0, 3.029, 2.169
5.231578947368421, -0.21, 3.078, 1.893
5.242105263157895, -0.35, 3.402, 1.666
5.252631578947368, -0.35, 3.642, 1.922
5.2631578947368425, -0.28, 3.759, 1.658
5.273684210526316, -0.21, 3.54, 1.69
5.28421052631579, -0.28, 3.978, 1.625
5.294736842105263, -0.21, 3.804, 1.808
5.3052631578947365, -0.07, 3.232, 1.423
5.315789473684211, -0.14, 2.336, 1.265
5.326315789473684, -0.35, 1.565, 1.2
5.336842105263158, 0.0, 1.334, 1.301
5.347368421052631, 0.0, 1.367, 1.52
5.3578947368421055, 0.07, 1.217, 1.565
5.368421052631579, 0.07, 1.606, 1.776
5.378947368421053, -0.14, 1.488, 2.039
5.389473684210526, -0.35, 1.29, 2.36
5.4, -0.07, 1.152, 2.336
5.410526315789474, -0.07, 0.795, 2.344
5.421052631578948, 0.0, 0.84, 2.494
5.431578947368421, 0.14, 0.759, 2.55
5.442105263157894, 0.0, 0.795, 2.344
5.4526315789473685, 0.14, 0.653, 2.745
5.463157894736842, 0.14, 0.678, 2.607
5.473684210526316, -0.07, 0.584, 2.733
5.484210526315789, -0.21, 0.592, 3.09
5.494736842105263, -0.14, 0.317, 3.041
5.505263157894737, 0.07, 0.418, 3.272
5.515789473684211, -0.07, 0.43, 3.203
5.526315789473684, -0.21, 0.142, 3.224
5.536842105263158, -0.14, 0.471, 2.571
5.5473684210526315, 0.0, 0.584, 2.733
5.557894736842106, 0.0, 0.422, 2.847
5.568421052631579, -0.21, 0.073, 3.212
5.578947368421052, -0.21, 0.159, 2.729
5.589473684210526, -0.14, 0.183, 2.591
5.6, -0.21, 0.11, 3.005
5.610526315789474, -0.14, 0.329, 2.972
5.621052631578947, 0.07, 0.446, 2.709
5.631578947368421, 0.14, 0.544, 2.157
5.6421052631578945, 0.21, 0.613, 2.169
5.652631578947369, 0.28, 0.982, 2.092
5.663157894736842, 0.35, 0.945, 2.299
5.673684210526316, 0.07, 0.645, 2.388
5.684210526315789, 0.0, 0.69, 2.538
5.6947368421052635, -0.21, 1.209, 2.417
5.705263157894737, -0.14, 0.921, 2.437
5.71578947368421, -0.21, 0.957, 2.23
5.726315789473684, -0.07, 0.888, 2.218
5.7368421052631575, -0.21, 0.876, 2.287
5.747368421052632, -0.07, 1.063, 2.035
5.757894736842105, -0.07, 1.014, 2.311
5.768421052631579, 0.0, 1.338, 2.084
5.778947368421052, 0.0, 1.407, 2.096
5.7894736842105265, 0.14, 1.728, 2.295
5.8, 0.07, 1.878, 2.25
5.810526315789474, 0.0, 1.683, 2.145
5.821052631578947, -0.07, 1.789, 1.95
5.831578947368421, -0.14, 1.497, 2.396
5.842105263157895, -0.21, 1.034, 2.599
5.852631578947369, -0.35, 0.674, 3.033
5.863157894736842, -0.35, 0.54, 2.583
5.873684210526315, -0.42, 0.641, 2.814
5.88421052631579, -0.56, 0.296, 2.753
5.894736842105263, -0.77, 0.377, 2.697
5.905263157894737, -0.56, 0.021, 2.705
5.91578947368421, -0.56, 0.077, 2.786
5.926315789473684, -0.42, 0.455, 3.066
5.936842105263158, -0.28, 0.536, 3.009
5.947368421052632, -0.42, 1.051, 3.313
5.957894736842105, -0.42, 0.949, 3.082
5.968421052631579, -0.35, 1.18, 2.98
5.978947368421053, -0.42, 1.513, 3.11
5.989473684210527, -0.49, 1.582, 3.122
6.0, -0.49, 1.708, 3.215
6.010526315789473, -0.56, 1.849, 2.814
6.021052631578947, -0.42, 2.17, 3.013
6.031578947368421, -0.21, 2.227, 3.094
6.042105263157895, -0.28, 2.733, 3.041
6.052631578947368, -0.35, 2.863, 2.708
6.063157894736842, -0.21, 2.701, 2.822
6.073684210526316, 0.0, 3.163, 2.619
6.08421052631579, -0.14, 3.334, 2.862
6.094736842105263, -0.07, 3.313, 2.574
6.105263157894737, 0.0, 3.05, 2.457
6.11578947368421, 0.21, 3.257, 2.493
6.126315789473685, 0.28, 3.042, 2.1
6.136842105263158, 0.21, 2.847, 1.995
6.147368421052631, 0.35, 2.904, 2.076
6.157894736842105, 0.07, 2.75, 2.546
6.168421052631579, -0.07, 2.498, 2.36
6.178947368421053, -0.07, 2.51, 2.291
6.189473684210526, -0.07, 2.072, 2.356
6.2, -0.07, 1.898, 2.538
6.2105263157894735, -0.14, 1.805, 2.664
6.221052631578948, -0.35, 1.059, 2.461
6.231578947368421, -0.49, 0.888, 2.218
6.242105263157895, -0.63, 0.84, 2.494
6.252631578947368, -0.42, 0.665, 2.676
6.2631578947368425, -0.63, 0.54, 2.583
6.273684210526316, -0.84, 0.252, 2.603
6.28421052631579, -0.7, 0.134, 2.867
6.294736842105263, -0.77, 0.179, 3.017
6.3052631578947365, -0.98, -0.19, 3.094
6.315789473684211, -0.98, -0.223, 2.875
6.326315789473684, -0.84, -0.34, 3.139
6.336842105263158, -0.63, -0.263, 3.508
6.347368421052631, -0.56, -0.182, 3.451
6.3578947368421055, -0.42, -0.214, 3.232
6.368421052631579, -0.56, -0.283, 3.22
6.378947368421053, -0.49, -0.401, 3.483
6.389473684210526, -0.42, -0.49, 3.183
6.4, -0.42, -0.373, 2.92
6.410526315789474, -0.42, -0.433, 3.264
6.421052631578948, -0.07, -0.251, 3.439
6.431578947368421, -0.14, -0.218, 3.658
6.442105263157894, 0.14, -0.174, 3.808
6.4526315789473685, 0.14, -0.206, 3.589
6.463157894736842, 0.07, -0.409, 3.126
6.473684210526316, 0.07, -0.429, 2.839
6.484210526315789, 0.0, -0.292, 2.863
6.494736842105263, -0.07, -0.142, 2.818
6.505263157894737, 0.07, -0.214, 3.232
6.515789473684211, 0.07, -0.194, 3.52
6.526315789473684, 0.21, -0.174, 3.808
6.536842105263158, 0.21, 0.114, 3.787
6.5473684210526315, 0.14, -0.125, 3.532
6.557894736842106, 0.14, -0.016, 2.911
6.568421052631579, 0.14, 0.183, 2.591
6.578947368421052, 0.07, 0.288, 2.396
6.589473684210526, 0.0, 0.09, 2.717
6.6, 0.21, 0.24, 2.672
6.610526315789474, -0.07, 0.219, 2.384
6.621052631578947, -0.07, 0.288, 2.396
6.631578947368421, -0.07, 0.183, 2.591
6.6421052631578945, -0.07, 0.26, 2.96
6.652631578947369, -0.42, 0.11, 3.005
6.663157894736842, -0.35, 0.041, 2.993
6.673684210526316, -0.42, -0.085, 2.899
6.684210526315789, -0.28, -0.166, 2.956
6.6947368421052635, -0.07, -0.19, 3.094
6.705263157894737, -0.07, -0.364, 3.276
6.71578947368421, -0.28, -0.373, 2.92
6.726315789473684, -0.35, -0.393, 2.632
6.7368421052631575, -0.14, -0.36, 2.851
6.747368421052632, -0.28, -0.592, 2.952
6.757894736842105, -0.21, -0.511, 2.895
6.768421052631579, -0.28, -0.571, 3.24
6.778947368421052, -0.49, -0.681, 3.86
6.7894736842105265, -0.35, -0.523, 4.173
6.8, -0.35, -0.632, 3.585
6.810526315789474, -0.42, -0.79, 3.272
6.821052631578947, -0.14, -0.596, 3.378
6.831578947368421, -0.14, -0.616, 3.09
6.842105263157895, -0.07, -0.661, 2.94
6.852631578947369, -0.21, -0.583, 3.309
6.863157894736842, -0.28, -0.77, 3.56
6.873684210526315, -0.14, -0.563, 3.597
6.88421052631579, -0.07, -0.677, 3.435
6.894736842105263, -0.14, -0.596, 3.378
6.905263157894737, -0.28, -0.45, 3.759
6.91578947368421, -0.21, -0.174, 3.808
6.926315789473684, -0.21, -0.141, 4.027
6.936842105263158, -0.35, -0.198, 3.946
6.947368421052632, -0.35, -0.117, 3.889
6.957894736842105, -0.28, -0.3, 3.714
6.968421052631579, -0.07, -0.482, 3.54
6.978947368421053, -0.07, -0.62, 3.516
6.989473684210527, 0.07, -0.677, 3.435
7.0, 0.14, -0.717, 2.859
7.010526315789473, 0.14, -0.754, 3.066
7.021052631578947, 0.0, -0.596, 3.378
7.031578947368421, -0.07, -0.397, 3.058
7.042105263157895, 0.07, -0.364, 3.276
7.052631578947368, -0.07, -0.259, 3.082
7.063157894736842, 0.07, -0.336, 2.713
7.073684210526316, 0.21, -0.466, 3.045
7.08421052631579, 0.21, -0.721, 3.285
7.094736842105263, 0.21, -0.924, 2.822
7.105263157894737, 0.21, -1.2, 2.774
7.11578947368421, 0.21, -1.695, 2.758
7.126315789473685, 0.21, -2.007, 2.916
7.136842105263158, 0.35, -2.526, 3.038
7.147368421052631, 0.35, -2.664, 3.013
7.157894736842105, 0.42, -2.287, 3.293
7.168421052631579, 0.28, -2.53, 3.463
7.178947368421053, 0.35, -2.08, 3.329
7.189473684210526, 0.14, -1.723, 3.321
7.2, 0.0, -1.792, 3.309
7.2105263157894735, 0.14, -1.423, 3.232
7.221052631578948, 0.14, -1.192, 3.131
7.231578947368421, -0.07, -0.94, 3.317
7.242105263157895, -0.14, -0.847, 3.191
7.252631578947368, 0.0, -0.859, 3.26
7.2631578947368425, 0.21, -0.685, 3.078
7.273684210526316, 0.14, -0.661, 2.94
7.28421052631579, 0.14, -0.547, 3.102
7.294736842105263, 0.07, -0.523, 2.964
7.3052631578947365, 0.14, -0.454, 2.976
7.315789473684211, 0.07, -0.316, 3.001
7.326315789473684, 0.07, -0.409, 3.126
7.336842105263158, 0.0, -0.271, 3.151
7.347368421052631, 0.07, -0.332, 3.495
7.3578947368421055, 0.14, -0.251, 3.439
7.368421052631579, 0.0, -0.446, 3.333
7.378947368421053, -0.07, -0.352, 3.208
7.389473684210526, 0.07, -0.292, 2.863
7.4, 0.0, -0.263, 2.299
7.410526315789474, 0.14, -0.105, 2.611
7.421052631578948, 0.14, -0.154, 2.887
7.431578947368421, -0.07, -0.178, 3.025
7.442105263157894, -0.07, -0.146, 3.244
7.4526315789473685, -0.14, 0.005, 3.199
7.463157894736842, -0.21, 0.061, 3.28
7.473684210526316, -0.21, 0.146, 2.798
7.484210526315789, -0.07, 0.256, 2.177
7.494736842105263, 0.07, 0.337, 2.121
7.505263157894737, 0.07, 0.357, 2.409
7.515789473684211, -0.21, 0.252, 2.603
7.526315789473684, -0.35, 0.54, 2.583
7.536842105263158, -0.28, 0.633, 2.457
7.5473684210526315, -0.28, 0.852, 2.425
7.557894736842106, -0.21, 0.953, 2.656
7.568421052631579, -0.21, 0.803, 2.701
7.578947368421052, -0.14, 0.815, 2.632
7.589473684210526, -0.21, 0.759, 2.55
7.6, -0.07, 0.167, 3.086
7.610526315789474, -0.21, -0.097, 2.968
7.621052631578947, -0.28, -0.048, 2.693
7.631578947368421, -0.28, -0.048, 2.693
7.6421052631578945, -0.28, -0.219, 2.449
7.652631578947369, -0.14, -0.069, 2.405
7.663157894736842, -0.07, -0.162, 2.53
7.673684210526316, -0.21, -0.15, 2.461
7.684210526315789, -0.21, 0.114, 2.579
7.6947368421052635, -0.21, 0.167, 3.086
7.705263157894737, -0.14, 0.126, 3.718
7.71578947368421, -0.14, 0.256, 3.386
7.726315789473684, 0.07, 0.017, 3.13
7.7368421052631575, 0.0, -0.016, 2.911
7.747368421052632, 0.14, -0.121, 3.106
7.757894736842105, 0.14, 0.021, 2.705
7.768421052631579, 0.14, -0.336, 2.713
7.778947368421052, 0.21, -0.429, 2.839
7.7894736842105265, 0.21, -0.34, 3.139
7.8, 0.14, -0.223, 2.875
7.810526315789474, 0.0, 0.073, 3.212
7.821052631578947, 0.07, 0.211, 3.236
7.831578947368421, 0.07, 0.349, 3.26
7.842105263157895, 0.07, 0.394, 3.41
7.852631578947369, 0.21, 0.442, 3.134
7.863157894736842, 0.14, -0.008, 3.268
7.873684210526315, 0.0, 0.029, 3.062
7.88421052631579, 0.21, -0.028, 2.98
7.894736842105263, 0.14, 0.077, 2.786
7.905263157894737, 0.28, -0.073, 2.83
7.91578947368421, 0.35, -0.129, 2.749
7.926315789473684, 0.28, 0.069, 2.429
7.936842105263158, 0.28, 0.418, 2.064
7.947368421052632, 0.28, 0.434, 2.778
7.957894736842105, 0.21, 0.596, 2.664
7.968421052631579, 0.21, 0.884, 2.644
7.978947368421053, 0.21, 1.14, 2.404
7.989473684210527, 0.07, 1.014, 2.311
8.0, 0.14, 0.702, 2.469
8.010526315789473, 0.14, 0.771, 2.482
8.021052631578947, 0.42, 0.584, 2.733
8.031578947368422, 0.07, 0.341, 2.903
8.042105263157895, 0.28, 0.252, 2.603
8.052631578947368, 0.21, 0.3, 2.328
8.063157894736841, 0.21, 0.333, 2.546
8.073684210526316, 0.07, 0.426, 2.421
8.08421052631579, -0.14, 0.402, 2.559
8.094736842105263, -0.07, 0.321, 2.615
8.105263157894736, 0.07, 0.459, 2.64
8.115789473684211, -0.07, 0.459, 2.64
8.126315789473685, -0.07, 0.446, 2.709
8.136842105263158, -0.42, 0.321, 2.615
8.147368421052631, -0.07, 0.296, 2.753
8.157894736842104, -0.14, 0.203, 2.879
8.16842105263158, -0.14, 0.309, 2.684
8.178947368421053, 0.07, 0.455, 3.066
8.189473684210526, 0.07, 0.155, 3.155
8.2, 0.0, 0.065, 2.855
8.210526315789474, 0.28, -0.016, 2.911
8.221052631578948, 0.28, -0.036, 2.624
8.23157894736842, 0.14, -0.166, 2.956
8.242105263157894, 0.14, -0.06, 2.761
8.25263157894737, 0.21, 0.102, 2.648
8.263157894736842, 0.35, 0.122, 2.936
8.273684210526316, 0.21, 0.211, 3.236
8.284210526315789, -0.07, 0.073, 3.212
8.294736842105262, 0.0, 0.098, 3.074
8.305263157894737, -0.14, -0.133, 3.175
8.31578947368421, -0.14, -0.154, 2.887
8.326315789473684, -0.14, -0.048, 2.693
8.336842105263157, -0.14, -0.117, 2.68
8.347368421052632, -0.07, -0.186, 2.668
8.357894736842105, 0.0, -0.243, 2.587
8.368421052631579, -0.14, -0.129, 2.749
8.378947368421052, -0.21, -0.085, 2.899
8.389473684210527, -0.28, 0.053, 2.924
8.4, -0.14, 0.256, 2.177
8.410526315789474, -0.07, 0.759, 2.55
8.421052631578947, 0.0, 0.828, 2.563
8.43157894736842, -0.07, 0.978, 2.518
8.442105263157895, -0.07, 0.941, 2.725
8.452631578947368, -0.21, 0.84, 2.494
8.463157894736842, -0.28, 0.852, 2.425
8.473684210526315, -0.35, 0.694, 2.113
8.48421052631579, -0.35, 0.491, 2.859
8.494736842105263, -0.07, 0.296, 2.753
8.505263157894737, 0.07, 0.122, 2.936
8.51578947368421, 0.0, 0.252, 2.603
8.526315789473685, 0.14, 0.402, 2.559
8.536842105263158, 0.28, 0.272, 2.891
8.547368421052632, 0.35, 0.138, 2.441
8.557894736842105, 0.28, -0.004, 2.843
8.56842105263158, 0.0, 0.102, 2.648
8.578947368421053, 0.07, -0.138, 2.392
8.589473684210526, -0.14, -0.048, 2.693
8.6, -0.07, -0.004, 2.843
8.610526315789473, -0.21, 0.073, 3.212
8.621052631578948, -0.28, -0.129, 3.958
8.631578947368421, -0.35, -0.279, 4.002
8.642105263157895, -0.14, -0.332, 3.495
8.652631578947368, -0.21, -0.263, 3.508
8.663157894736843, -0.21, -0.389, 3.414
8.673684210526316, -0.14, -0.352, 3.208
8.68421052631579, -0.14, -0.417, 2.77
8.694736842105263, -0.07, -0.604, 3.021
8.705263157894738, -0.28, -0.401, 3.483
8.715789473684211, -0.21, -0.308, 3.358
8.726315789473684, -0.28, -0.17, 3.382
8.736842105263158, -0.21, 0.001, 3.625
8.74736842105263, -0.28, 0.301, 3.536
8.757894736842106, -0.35, 0.248, 3.029
8.76842105263158, -0.21, 0.086, 3.143
8.778947368421052, -0.28, 0.13, 3.293
8.789473684210526, -0.21, -0.158, 3.313
8.8, 0.07, -0.198, 2.737
8.810526315789474, 0.07, -0.247, 3.013
8.821052631578947, 0.07, -0.304, 2.932
8.83157894736842, 0.07, -0.247, 3.013
8.842105263157896, 0.07, -0.235, 2.944
8.852631578947369, 0.28, -0.028, 2.98
8.863157894736842, 0.49, 0.187, 3.374
8.873684210526315, 0.42, 0.256, 3.386
8.884210526315789, 0.21, 0.386, 3.053
8.894736842105264, 0.28, 0.422, 2.847
8.905263157894737, 0.35, 0.357, 2.409
8.91578947368421, 0.35, 0.471, 2.571
8.926315789473684, 0.35, 0.702, 2.469
8.936842105263159, 0.35, 0.515, 2.721
8.947368421052632, 0.28, 0.434, 2.778
8.957894736842105, 0.35, 0.471, 2.571
8.968421052631578, 0.35, 0.313, 2.259
8.978947368421053, 0.42, 0.438, 2.352
8.989473684210527, 0.28, 0.252, 2.603
9.0, 0.14, 0.288, 2.396
9.010526315789473, 0.0, 0.438, 2.352
9.021052631578947, -0.21, 0.333, 2.546
9.031578947368422, -0.14, 0.414, 2.49
9.042105263157895, -0.21, 0.24, 2.672
9.052631578947368, -0.49, 0.183, 2.591
9.063157894736841, -0.14, 0.102, 2.648
9.073684210526316, -0.21, 0.183, 2.591
9.08421052631579, 0.0, 0.195, 2.522
9.094736842105263, 0.07, 0.353, 2.834
9.105263157894736, -0.07, 0.102, 2.648
9.115789473684211, -0.21, 0.021, 2.705
9.126315789473685, -0.07, 0.008, 2.774
9.136842105263158, -0.07, -0.202, 3.163
9.147368421052631, -0.14, -0.097, 2.968
9.157894736842104, 0.0, 0.053, 2.924
9.16842105263158, -0.14, 0.098, 3.074
9.178947368421053, -0.07, 0.077, 2.786
9.189473684210526, -0.14, 0.069, 2.429
9.2, -0.21, 0.045, 2.567
9.210526315789474, -0.14, -0.073, 2.83
9.221052631578948, -0.28, -0.259, 3.082
9.23157894736842, 0.0, -0.296, 3.289
9.242105263157894, -0.07, -0.077, 3.256
9.25263157894737, -0.07, -0.113, 3.463
9.263157894736842, 0.0, -0.121, 3.106
9.273684210526316, 0.14, -0.028, 2.98
9.284210526315789, 0.14, 0.008, 2.774
9.294736842105262, 0.14, 0.183, 2.591
9.305263157894737, 0.14, 0.321, 2.615
9.31578947368421, 0.07, 0.377, 2.697
9.326315789473684, 0.0, 0.446, 2.709
9.336842105263157, -0.21, 0.483, 2.502
9.347368421052632, -0.28, 0.665, 2.676
9.357894736842105, -0.21, 0.584, 2.733
9.368421052631579, -0.21, 0.507, 2.364
9.378947368421052, -0.21, 0.515, 2.721
9.389473684210527, 0.07, 0.377, 2.697
9.4, -0.14, 0.227, 2.741
9.410526315789474, -0.07, -0.004, 2.843
9.421052631578947, 0.0, -0.016, 2.911
9.43157894736842, 0.07, 0.09, 2.717
9.442105263157895, 0.0, 0.114, 2.579
9.452631578947368, 0.07, 0.463, 2.214
9.463157894736842, 0.0, 0.459, 2.64
9.473684210526315, -0.14, 0.203, 2.879
9.48421052631579, -0.14, 0.373, 3.122
9.494736842105263, -0.14, 0.244, 3.455
9.505263157894737, -0.28, -0.125, 3.532
9.51578947368421, -0.21, 0.179, 3.017
9.526315789473685, 0.0, 0.029, 3.062
9.536842105263158, -0.07, 0.155, 3.155
9.547368421052632, 0.14, -0.06, 2.761
9.557894736842105, -0.07, 0.155, 3.155
9.56842105263158, 0.0, 0.09, 2.717
9.578947368421053, 0.14, 0.065, 2.855
9.589473684210526, 0.21, -0.052, 3.118
9.6, 0.0, 0.041, 2.993
9.610526315789473, -0.14, 0.122, 2.936
9.621052631578948, 0.0, -0.028, 2.98
9.631578947368421, 0.0, -0.178, 3.025
9.642105263157895, 0.07, -0.089, 3.325
9.652631578947368, 0.0, -0.239, 3.37
9.663157894736843, -0.14, -0.308, 3.358
9.673684210526316, -0.07, -0.356, 3.633
9.68421052631579, 0.07, -0.344, 3.564
9.694736842105263, 0.07, -0.214, 3.232
9.705263157894738, 0.14, -0.121, 3.106
9.715789473684211, 0.14, -0.008, 3.268
9.726315789473684, 0.35, 0.037, 3.418
9.736842105263158, 0.49, 0.037, 3.418
9.74736842105263, 0.42, 0.13, 3.293
9.757894736842106, 0.0, 0.041, 2.993
9.76842105263158, 0.14, -0.016, 2.911
9.778947368421052, -0.14, -0.089, 3.325
9.789473684210526, -0.28, -0.121, 3.106
9.8, -0.42, -0.223, 2.875
9.810526315789474, -0.42, -0.243, 2.587
9.821052631578947, -0.49, -0.129, 2.749
9.83157894736842, -0.56, -0.048, 2.693
9.842105263157896, -0.56, -0.129, 2.749
9.852631578947369, -0.56, -0.129, 2.749
9.863157894736842, -0.49, 0.077, 2.786
9.873684210526315, -0.21, 0.008, 2.774
9.884210526315789, -0.14, 0.122, 2.936
9.894736842105264, -0.21, 0.365, 2.765
9.905263157894737, -0.07, 0.39, 2.628
9.91578947368421, -0.35, 0.491, 2.859
9.926315789473684, -0.07, 0.236, 3.098
9.936842105263159, -0.07, 0.134, 2.867
9.947368421052632, 0.0, 0.114, 2.579
9.957894736842105, 0.0, -0.016, 2.911
9.968421052631578, 0.21, 0.203, 2.879
9.978947368421053, 0.14, 0.24, 2.672
9.989473684210527, 0.42, 0.029, 3.062
10.0, 0.35, 0.008, 2.774
10.010526315789473, 0.49, -0.178, 3.025
10.021052631578947, 0.28, -0.028, 2.98
10.031578947368422, 0.21, -0.158, 3.313
10.042105263157895, 0.49, -0.239, 3.37
10.052631578947368, 0.56, -0.251, 3.439
10.063157894736841, 0.28, -0.259, 3.082
10.073684210526316, 0.21, -0.292, 2.863
10.08421052631579, 0.28, -0.283, 3.22
10.094736842105263, 0.0, -0.364, 3.276
10.105263157894736, 0.0, -0.296, 3.289
10.115789473684211, -0.14, -0.235, 2.944
10.126315789473685, -0.28, -0.336, 3.921
10.136842105263158, -0.35, -0.291, 4.071
10.147368421052631, -0.42, -0.3, 3.714
10.157894736842104, -0.21, -0.227, 3.301
10.16842105263158, -0.21, -0.129, 2.749
10.178947368421053, -0.07, -0.085, 2.899
10.189473684210526, -0.07, 0.008, 2.774
10.2, 0.0, 0.045, 2.567
10.210526315789474, 0.0, 0.159, 2.729
10.221052631578948, 0.07, 0.54, 2.583
10.23157894736842, 0.07, 0.341, 2.903
10.242105263157894, -0.07, 0.536, 3.009
10.25263157894737, 0.07, 0.653, 2.745
10.263157894736842, 0.07, 0.633, 2.457
10.273684210526316, 0.28, 0.56, 2.871
10.284210526315789, 0.49, 0.572, 2.802
10.294736842105262, 0.21, 0.353, 2.834
10.305263157894737, 0.42, 0.077, 2.786
10.31578947368421, 0.42, 0.012, 2.348
10.326315789473684, 0.35, -0.081, 2.474
10.336842105263157, 0.14, 0.0, 2.417
10.347368421052632, 0.21, -0.162, 2.53
10.357894736842105, -0.14, 0.102, 2.648
10.368421052631579, -0.21, -0.004, 2.843
10.378947368421052, -0.21, -0.02, 3.337
10.389473684210527, -0.42, -0.174, 3.808
10.4, -0.49, -0.101, 3.394
10.410526315789474, -0.42, -0.101, 3.394
10.421052631578947, -0.28, -0.214, 3.232
10.43157894736842, -0.21, -0.202, 3.163
10.442105263157895, -0.21, -0.178, 3.025
10.452631578947368, -0.21, -0.073, 2.83
10.463157894736842, -0.21, -0.028, 2.98
10.473684210526315, -0.21, 0.053, 2.924
10.48421052631579, -0.28, 0.065, 2.855
10.494736842105263, -0.21, 0.122, 2.936
10.505263157894737, 0.0, 0.134, 2.867
10.51578947368421, -0.35, 0.118, 3.362
10.526315789473685, -0.28, 0.167, 3.086
10.536842105263158, -0.21, 0.199, 3.305
10.547368421052632, -0.21, 0.13, 3.293
10.557894736842105, -0.07, -0.239, 3.37
10.56842105263158, -0.21, -0.454, 2.976
10.578947368421053, 0.07, -0.429, 2.839
10.589473684210526, 0.21, -0.49, 3.183
10.6, 0.35, -0.304, 2.932
10.610526315789473, 0.7, -0.198, 2.737
10.621052631578948, 0.7, 0.065, 2.855
10.631578947368421, 0.7, 0.053, 2.924
10.642105263157895, 0.84, 0.552, 2.514
10.652631578947368, 0.91, 0.771, 2.482
10.663157894736843, 0.91, 0.945, 2.299
10.673684210526316, 0.49, 0.84, 2.494
10.68421052631579, 0.56, 0.99, 2.449
10.694736842105263, 0.56, 0.819, 2.206
10.705263157894738, 0.77, 0.901, 2.149
10.715789473684211, 0.49, 0.913, 2.08
10.726315789473684, 0.56, 0.982, 2.092
10.736842105263158, 0.56, 0.763, 2.125
10.74736842105263, 0.49, 0.783, 2.413
10.757894736842106, 0.42, 0.321, 2.615
10.76842105263158, 0.28, 0.576, 2.376
10.778947368421052, 0.21, 0.495, 2.433
10.789473684210526, 0.14, 0.3, 2.328
10.8, 0.0, 0.276, 2.465
10.810526315789474, 0.42, 0.377, 2.697
10.821052631578947, 0.21, 0.475, 2.145
10.83157894736842, 0.14, 0.564, 2.445
10.842105263157896, 0.21, 0.588, 2.307
10.852631578947369, 0.0, 0.471, 2.571
10.863157894736842, 0.0, 0.288, 2.396
10.873684210526315, 0.07, 0.381, 2.271
10.884210526315789, 0.07, 0.219, 2.384
10.894736842105264, 0.21, 0.045, 2.567
10.905263157894737, 0.21, 0.09, 2.717
10.91578947368421, 0.35, -0.048, 2.693
10.926315789473684, 0.49, 0.057, 2.498
10.936842105263159, 0.42, 0.102, 2.648
10.947368421052632, 0.42, 0.065, 2.855
10.957894736842105, 0.35, -0.028, 2.98
10.968421052631578, 0.35, -0.154, 2.887
10.978947368421053, 0.56, -0.292, 2.863
10.989473684210527, 0.28, 0.065, 2.855
11.0, 0.21, 0.126, 2.51
11.010526315789473, 0.35, 0.163, 2.303
11.021052631578947, 0.35, 0.187, 2.165
11.031578947368422, 0.49, 0.532, 2.226
11.042105263157895, 0.42, 0.864, 2.356
11.052631578947368, 0.35, 0.807, 2.275
11.063157894736841, 0.35, 0.471, 2.571
11.073684210526316, 0.49, 0.426, 2.421
11.08421052631579, 0.56, 0.341, 2.903
11.094736842105263, 0.42, 0.353, 2.834
11.105263157894736, 0.35, 0.159, 2.729
11.115789473684211, 0.42, 0.3, 2.328
11.126315789473685, 0.42, 0.004, 1.991
11.136842105263158, 0.28, 0.231, 2.315
11.147368421052631, 0.35, 0.175, 2.234
11.157894736842104, 0.07, 0.085, 1.934
11.16842105263158, -0.07, 0.256, 2.177
11.178947368421053, 0.14, 0.195, 2.522
11.189473684210526, 0.07, 0.471, 2.571
11.2, 0.07, 0.771, 2.482
11.210526315789474, 0.07, 0.759, 2.55
11.221052631578948, 0.0, 0.467, 2.997
11.23157894736842, 0.14, 0.398, 2.984
11.242105263157894, 0.42, 0.714, 2.4
11.25263157894737, 0.35, 0.171, 2.66
11.263157894736842, 0.49, -0.06, 2.761
11.273684210526316, 0.49, -0.093, 2.542
11.284210526315789, 0.35, -0.15, 2.461
11.294736842105262, 0.35, 0.126, 2.51
11.305263157894737, 0.28, -0.162, 2.53
11.31578947368421, 0.28, -0.231, 2.518
11.326315789473684, 0.42, -0.202, 3.163
11.336842105263157, 0.42, -0.218, 3.658
11.347368421052632, 0.49, -0.17, 3.382
11.357894736842105, 0.49, -0.267, 2.725
11.368421052631579, 0.63, -0.154, 2.887
11.378947368421052, 0.77, -0.279, 2.794
11.389473684210527, 0.49, -0.324, 2.644
11.4, 0.63, -0.304, 2.932
11.410526315789474, 0.77, 0.005, 3.199
11.421052631578947, 0.49, 0.086, 3.143
11.43157894736842, 0.7, 0.337, 3.329
11.442105263157895, 0.63, 0.159, 2.729
11.452631578947368, 0.49, 0.098, 3.074
11.463157894736842, 0.07, -0.004, 2.843
11.473684210526315, 0.07, -0.073, 2.83
11.48421052631579, 0.14, -0.214, 3.232
11.494736842105263, 0.21, -0.227, 3.301
11.505263157894737, 0.35, -0.271, 3.151
11.51578947368421, 0.49, -0.409, 3.126
11.526315789473685, 0.63, -0.324, 2.644
11.536842105263158, 0.63, -0.117, 2.68
11.547368421052632, 0.49, -0.142, 2.818
11.557894736842105, 0.42, -0.117, 2.68
11.56842105263158, 0.42, 0.037, 2.21
11.578947368421053, 0.28, 0.15, 2.372
11.589473684210526, 0.21, 0.183, 2.591
11.6, 0.21, 0.252, 2.603
11.610526315789473, 0.14, 0.321, 2.615
11.621052631578948, 0.14, 0.353, 2.834
11.631578947368421, 0.14, 0.345, 2.478
11.642105263157895, 0.35, 0.463, 2.214
11.652631578947368, 0.28, 0.333, 2.546
11.663157894736843, 0.21, 0.357, 2.409
11.673684210526316, 0.35, 0.069, 2.429
11.68421052631579, 0.35, 0.021, 2.705
11.694736842105263, 0.35, -0.06, 2.761
11.705263157894738, 0.14, 0.215, 2.81
11.715789473684211, 0.56, 0.077, 2.786
11.726315789473684, 0.77, 0.041, 2.993
11.736842105263158, 0.77, 0.134, 2.867
11.74736842105263, 0.56, 0.171, 2.66
11.757894736842106, 0.63, 0.077, 2.786
11.76842105263158, 0.63, -0.028, 2.98
11.778947368421052, 0.56, 0.053, 2.924
11.789473684210526, 0.28, 0.159, 2.729
11.8, 0.42, -0.028, 2.98
11.810526315789474, 0.56, 0.349, 3.26
11.821052631578947, 0.35, 0.43, 3.203
11.83157894736842, 0.21, 0.305, 3.11
11.842105263157896, 0.14, 0.191, 2.948
11.852631578947369, 0.14, 0.053, 2.924
11.863157894736842, 0.35, 0.021, 2.705
11.873684210526315, 0.0, 0.053, 2.924
11.884210526315789, 0.14, 0.021, 2.705
11.894736842105264, 0.14, 0.09, 2.717
11.905263157894737, 0.07, 0.033, 2.636
11.91578947368421, -0.07, 0.134, 2.867
11.926315789473684, -0.07, 0.171, 2.66
11.936842105263159, -0.07, 0.309, 2.684
11.947368421052632, -0.07, 0.207, 2.453
11.957894736842105, 0.0, 0.24, 2.672
11.968421052631578, 0.07, 0.467, 2.997
11.978947368421053, 0.14, 0.446, 2.709
11.989473684210527, 0.14, 0.406, 2.133
12.0, 0.21, 0.349, 2.052
12.010526315789473, 0.28, 0.333, 2.546
12.021052631578947, 0.21, 0.146, 2.798
12.031578947368422, 0.28, 0.272, 2.891
12.042105263157895, 0.21, 0.422, 2.847
12.052631578947368, 0.07, 0.361, 3.191
12.063157894736841, 0.21, 0.329, 2.972
12.073684210526316, 0.14, 0.341, 2.903
12.08421052631579, 0.07, 0.507, 2.364
12.094736842105263, 0.0, 0.528, 2.652
12.105263157894736, 0.0, 0.653, 2.745
12.115789473684211, 0.07, 0.26, 2.96
12.126315789473685, -0.21, 0.017, 3.13
12.136842105263158, -0.35, 0.017, 3.13
12.147368421052631, -0.21, -0.154, 2.887
12.157894736842104, -0.28, -0.121, 3.106
12.16842105263158, -0.35, -0.34, 3.139
12.178947368421053, -0.28, -0.04, 3.049
12.189473684210526, -0.14, -0.146, 3.244
12.2, 0.0, -0.19, 3.094
12.210526315789474, 0.0, -0.129, 2.749
12.221052631578948, 0.21, -0.097, 2.968
12.23157894736842, 0.28, -0.202, 3.163
12.242105263157894, 0.14, -0.235, 2.944
12.25263157894737, 0.14, -0.21, 2.806
12.263157894736842, 0.21, -0.016, 2.911
12.273684210526316, 0.28, 0.159, 2.729
12.284210526315789, 0.14, 0.41, 2.915
12.294736842105262, 0.0, 0.163, 3.512
12.305263157894737, 0.0, 0.114, 3.787
12.31578947368421, 0.0, 0.256, 3.386
12.326315789473684, 0.07, 0.167, 3.086
12.336842105263157, 0.28, 0.086, 3.143
12.347368421052632, 0.14, 0.065, 2.855
12.357894736842105, 0.14, -0.117, 2.68
12.368421052631579, 0.14, 0.077, 2.786
12.378947368421052, 0.14, 0.102, 2.648
12.389473684210527, 0.21, 0.102, 2.648
12.4, 0.07, 0.171, 2.66
12.410526315789474, 0.0, 0.479, 2.928
12.421052631578947, 0.0, 0.337, 3.329
12.43157894736842, -0.07, 0.13, 3.293
12.442105263157895, -0.14, 0.021, 2.705
12.452631578947368, -0.07, 0.296, 2.753
12.463157894736842, 0.07, 0.065, 2.855
12.473684210526315, -0.14, 0.09, 2.717
12.48421052631579, 0.07, -0.073, 2.83
12.494736842105263, 0.21, 0.065, 2.855
12.505263157894737, 0.42, -0.129, 2.749
12.51578947368421, 0.28, -0.198, 2.737
12.526315789473685, 0.35, 0.146, 2.798
12.536842105263158, 0.63, 0.041, 2.993
12.547368421052632, 0.63, 0.183, 2.591
12.557894736842105, 0.35, 0.102, 2.648
12.56842105263158, 0.42, 0.329, 2.972
12.578947368421053, 0.63, 0.442, 3.134
12.589473684210526, 0.56, 0.467, 2.997
12.6, 0.63, 0.227, 2.741
12.610526315789473, 0.63, 0.39, 2.628
12.621052631578948, 0.42, 0.759, 2.55
12.631578947368421, 0.21, 0.345, 2.478
12.642105263157895, 0.14, 0.394, 2.202
12.652631578947368, 0.14, 0.633, 2.457
12.663157894736843, 0.28, 0.402, 2.559
12.673684210526316, 0.21, 0.45, 2.283
12.68421052631579, 0.07, 0.45, 2.283
12.694736842105263, 0.07, 0.645, 2.388
12.705263157894738, -0.14, 0.426, 2.421
12.715789473684211, 0.0, 0.564, 2.445
12.726315789473684, -0.14, 0.325, 2.19
12.736842105263158, -0.21, 0.268, 2.109
12.74736842105263, -0.35, 0.556, 2.088
12.757894736842106, -0.35, 0.532, 2.226
12.76842105263158, -0.14, 0.349, 2.052
12.778947368421052, -0.07, 0.507, 2.364
12.789473684210526, 0.0, 0.337, 2.121
12.8, 0.07, 0.357, 2.409
12.810526315789474, -0.07, 0.264, 2.534
12.821052631578947, -0.07, 0.276, 2.465
12.83157894736842, 0.07, 0.175, 2.234
12.842105263157896, 0.07, 0.13, 2.084
12.852631578947369, 0.0, 0.256, 2.177
12.863157894736842, 0.07, 0.357, 2.409
12.873684210526315, 0.0, 0.3, 2.328
12.884210526315789, 0.28, 0.012, 2.348
12.894736842105264, 0.42, 0.029, 1.853
12.905263157894737, 0.07, 0.199, 2.096
12.91578947368421, 0.21, 0.313, 2.259
12.926315789473684, 0.21, 0.195, 2.522
12.936842105263159, 0.14, 0.414, 2.49
12.947368421052632, 0.28, 0.56, 2.871
12.957894736842105, 0.21, 0.795, 2.344
12.968421052631578, 0.35, 0.986, 1.666
12.978947368421053, 0.28, 0.641, 1.606
12.989473684210527, 0.35, 0.613, 2.169
13.0, 0.0, 0.475, 2.145
13.010526315789473, 0.0, 0.426, 2.421
13.021052631578947, 0.07, 0.459, 2.64
13.031578947368422, 0.14, 0.057, 2.498
13.042105263157895, 0.21, -0.016, 2.911
13.052631578947368, 0.14, -0.012, 2.486
13.063157894736841, 0.21, 0.256, 2.177
13.073684210526316, 0.35, 0.369, 2.34
13.08421052631579, 0.56, 0.438, 2.352
13.094736842105263, 0.28, 0.402, 2.559
13.105263157894736, 0.28, 0.155, 3.155
13.115789473684211, 0.63, 0.487, 3.284
13.126315789473685, 0.56, 0.305, 3.11
13.136842105263158, 0.7, 0.098, 3.074
13.147368421052631, 0.84, 0.146, 2.798
13.157894736842104, 1.12, -0.004, 2.843
13.16842105263158, 1.19, 0.11, 3.005
13.178947368421053, 1.33, 0.134, 2.867
13.189473684210526, 1.61, -0.186, 2.668
13.2, 1.82, -0.235, 2.944
13.210526315789474, 1.82, -0.064, 3.187
13.221052631578948, 1.54, 0.086, 3.143
13.23157894736842, 1.19, 0.422, 2.847
13.242105263157894, 1.05, 0.353, 2.834
13.25263157894737, 1.12, 0.422, 2.847
13.263157894736842, 0.84, 0.584, 2.733
13.273684210526316, 0.63, 0.377, 2.697
13.284210526315789, 0.56, 0.67, 3.459
13.294736842105262, 0.56, 0.426, 3.629
13.305263157894737, 0.49, 0.244, 3.455
13.31578947368421, 0.42, 0.292, 3.179
13.326315789473684, 0.42, 0.098, 3.074
13.336842105263157, 0.42, -0.097, 2.968
13.347368421052632, 0.28, -0.036, 2.624
13.357894736842105, 0.07, -0.024, 2.555
13.368421052631579, 0.14, 0.11, 3.005
13.378947368421052, 0.07, 0.203, 2.879
13.389473684210527, -0.07, 0.446, 2.709
13.4, 0.14, 0.296, 2.753
13.410526315789474, 0.07, 0.377, 2.697
13.421052631578947, 0.14, 0.41, 2.915
13.43157894736842, 0.14, 0.329, 2.972
13.442105263157895, 0.14, 0.005, 3.199
13.452631578947368, 0.07, 0.041, 2.993
13.463157894736842, 0.14, -0.166, 2.956
13.473684210526315, 0.28, -0.328, 3.07
13.48421052631579, 0.14, -0.247, 3.013
13.494736842105263, 0.28, -0.385, 2.989
13.505263157894737, 0.07, -0.292, 2.863
13.51578947368421, 0.14, -0.198, 2.737
13.526315789473685, 0.28, -0.154, 2.887
13.536842105263158, 0.28, -0.073, 2.83
13.547368421052632, 0.14, -0.04, 3.049
13.557894736842105, 0.21, 0.284, 2.822
13.56842105263158, 0.21, 0.321, 2.615
13.578947368421053, 0.28, 0.227, 2.741
13.589473684210526, 0.21, 0.122, 2.936
13.6, 0.28, 0.203, 2.879
13.610526315789473, 0.28, 0.284, 2.822
13.621052631578948, 0.35, 0.252, 2.603
13.631578947368421, 0.63, 0.021, 2.705
13.642105263157895, 0.56, 0.203, 2.879
13.652631578947368, 0.63, -0.109, 3.037
13.663157894736843, 0.63, 0.098, 3.074
13.673684210526316, 0.56, -0.04, 3.049
13.68421052631579, 0.56, -0.142, 2.818
13.694736842105263, 0.35, 0.077, 2.786
13.705263157894738, 0.21, -0.097, 2.968
13.715789473684211, 0.42, 0.167, 3.086
13.726315789473684, 0.14, -0.097, 2.968
13.736842105263158, 0.0, -0.004, 2.843
13.74736842105263, 0.14, 0.021, 2.705
13.757894736842106, 0.07, 0.215, 2.81
13.76842105263158, 0.14, 0.171, 2.66
13.778947368421052, 0.14, 0.008, 2.774
13.789473684210526, 0.21, 0.053, 2.924
13.8, 0.28, -0.178, 3.025
13.810526315789474, 0.49, -0.247, 3.013
13.821052631578947, 0.7, -0.064, 3.187
13.83157894736842, 0.28, 0.098, 3.074
13.842105263157896, 0.28, 0.077, 2.786
13.852631578947369, 0.28, 0.053, 2.924
13.863157894736842, 0.21, 0.041, 2.993
13.873684210526315, 0.35, -0.34, 3.139
13.884210526315789, 0.35, -0.267, 2.725
13.894736842105264, 0.21, -0.474, 2.689
13.905263157894737, 0.21, -0.604, 3.021
13.91578947368421, 0.21, -0.515, 3.321
13.926315789473684, 0.35, -0.344, 3.564
13.936842105263159, 0.42, -0.377, 3.345
13.947368421052632, 0.42, -0.283, 3.22
13.957894736842105, 0.35, -0.202, 3.163
13.968421052631578, 0.28, -0.133, 3.175
13.978947368421053, 0.21, -0.385, 2.989
13.989473684210527, 0.21, -0.527, 3.39
14.0, 0.28, -0.506, 3.678
14.010526315789473, 0.14, -0.51, 4.104
14.021052631578947, 0.42, -0.523, 4.173
14.031578947368422, 0.56, -0.45, 3.759
14.042105263157895, 0.35, -0.316, 3.001
14.052631578947368, 0.42, 0.029, 3.062
14.063157894736841, 0.28, 0.049, 3.349
14.073684210526316, 0.42, -0.352, 3.208
14.08421052631579, 0.14, -0.259, 3.082
14.094736842105263, 0.14, -0.296, 3.289
14.105263157894736, 0.07, -0.271, 3.151
14.115789473684211, 0.14, -0.251, 3.439
14.126315789473685, 0.14, -0.182, 3.451
14.136842105263158, 0.0, -0.17, 3.382
14.147368421052631, 0.14, -0.121, 3.106
14.157894736842104, 0.0, 0.005, 3.199
14.16842105263158, -0.14, 0.11, 3.005
14.178947368421053, -0.14, 0.179, 3.017
14.189473684210526, -0.07, 0.13, 3.293
14.2, -0.07, 0.098, 3.074
14.210526315789474, 0.07, 0.349, 3.26
14.221052631578948, 0.0, 0.155, 3.155
14.23157894736842, 0.07, 0.203, 2.879
14.242105263157894, -0.14, 0.467, 2.997
14.25263157894737, -0.21, 0.463, 3.422
14.263157894736842, -0.42, 0.325, 3.398
14.273684210526316, -0.21, -0.3, 3.714
14.284210526315789, -0.07, -0.304, 4.14
14.294736842105262, -0.21, -0.393, 3.84
14.305263157894737, 0.07, -0.669, 3.792
14.31578947368421, 0.35, -0.636, 4.01
14.326315789473684, 0.7, -0.535, 4.242
14.336842105263157, 0.63, -0.624, 3.942
14.347368421052632, 0.63, -0.563, 3.597
14.357894736842105, 0.35, -0.794, 3.698
14.368421052631579, 0.56, -0.243, 3.796
14.378947368421052, 0.21, -0.417, 3.978
14.389473684210527, 0.14, -0.372, 4.128
14.4, 0.14, -0.291, 4.071
14.410526315789474, -0.07, -0.222, 4.083
14.421052631578947, -0.14, -0.178, 4.233
14.43157894736842, -0.14, -0.36, 4.059
14.442105263157895, -0.28, -0.579, 4.092
14.452631578947368, -0.28, -0.762, 3.917
14.463157894736842, -0.35, -0.681, 3.86
14.473684210526315, -0.49, -0.75, 3.848
14.48421052631579, -0.21, -0.713, 3.641
14.494736842105263, 0.0, -0.539, 3.459
14.505263157894737, 0.0, -0.45, 3.759
14.51578947368421, 0.07, -0.324, 3.852
14.526315789473685, 0.14, -0.231, 3.727
14.536842105263158, 0.07, -0.182, 3.451
14.547368421052632, 0.07, -0.206, 3.589
14.557894736842105, 0.21, -0.182, 3.451
14.56842105263158, 0.28, -0.206, 3.589
14.578947368421053, 0.49, -0.101, 3.394
14.589473684210526, 0.42, -0.332, 3.495
14.6, 0.35, -0.364, 3.276
14.610526315789473, 0.56, -0.34, 3.139
14.621052631578948, 0.77, -0.328, 3.07
14.631578947368421, 0.91, -0.223, 2.875
14.642105263157895, 0.56, -0.028, 2.98
14.652631578947368, 0.91, -0.101, 3.394
14.663157894736843, 0.49, -0.283, 3.22
14.673684210526316, 0.28, -0.146, 3.244
14.68421052631579, 0.35, -0.146, 3.244
14.694736842105263, 0.35, -0.283, 3.22
14.705263157894738, 0.49, -0.352, 3.208
14.715789473684211, 0.21, -0.296, 3.289
14.726315789473684, 0.07, -0.263, 3.508
14.736842105263158, 0.21, -0.231, 3.727
14.74736842105263, 0.07, -0.32, 3.427
14.757894736842106, 0.14, -0.267, 3.933
14.76842105263158, 0.21, -0.218, 3.658
14.778947368421052, 0.07, -0.296, 3.289
14.789473684210526, -0.14, -0.218, 3.658
14.8, 0.0, -0.17, 3.382
14.810526315789474, -0.21, -0.263, 3.508
14.821052631578947, -0.07, -0.194, 3.52
14.83157894736842, -0.07, -0.146, 3.244
14.842105263157896, 0.0, -0.19, 3.094
14.852631578947369, 0.14, -0.19, 3.094
14.863157894736842, 0.0, -0.19, 3.094
14.873684210526315, 0.0, -0.077, 3.256
14.884210526315789, 0.0, -0.251, 3.439
14.894736842105264, 0.35, -0.166, 2.956
14.905263157894737, 0.07, -0.097, 2.968
14.91578947368421, 0.14, -0.316, 3.001
14.926315789473684, 0.28, -0.417, 2.77
14.936842105263159, 0.28, -0.442, 2.907
14.947368421052632, 0.35, -0.539, 3.459
14.957894736842105, 0.35, -0.571, 3.24
14.968421052631578, 0.49, -0.559, 3.171
14.978947368421053, 0.42, -0.49, 3.183
14.989473684210527, 0.35, -0.421, 3.195
15.0, 0.49, -0.154, 2.887
15.010526315789473, 0.7, 0.021, 2.705
15.021052631578947, 0.7, -0.19, 3.094
15.031578947368422, 0.77, 0.008, 2.774
15.042105263157895, 0.42, 0.098, 3.074
15.052631578947368, 0.35, 0.167, 3.086
15.063157894736841, 0.42, 0.349, 3.26
15.073684210526316, 0.56, 0.086, 3.143
15.08421052631579, 0.49, 0.013, 3.556
15.094736842105263, 0.28, -0.121, 3.106
15.105263157894736, 0.28, -0.133, 3.175
15.115789473684211, 0.07, -0.186, 2.668
15.126315789473685, 0.0, -0.373, 2.92
15.136842105263158, 0.0, -0.328, 3.07
15.147368421052631, 0.14, -0.421, 3.195
15.157894736842104, -0.07, -0.592, 2.952
15.16842105263158, 0.0, -0.397, 3.058
15.178947368421053, 0.07, -0.316, 3.001
15.189473684210526, 0.21, -0.223, 2.875
15.2, -0.07, -0.17, 3.382
15.210526315789474, 0.0, -0.089, 3.325
15.221052631578948, -0.07, -0.162, 3.739
15.23157894736842, -0.07, -0.198, 3.946
15.242105263157894, 0.07, -0.3, 3.714
15.25263157894737, -0.14, -0.332, 3.495
15.263157894736842, 0.0, -0.182, 3.451
15.273684210526316, -0.14, -0.239, 3.37
15.284210526315789, -0.07, -0.409, 3.126
15.294736842105262, 0.14, -0.397, 3.058
15.305263157894737, 0.14, -0.397, 3.058
15.31578947368421, 0.07, -0.308, 3.358
15.326315789473684, 0.21, -0.158, 3.313
15.336842105263157, 0.28, -0.174, 3.808
15.347368421052632, 0.28, -0.372, 4.128
15.357894736842105, 0.14, -0.287, 3.645
15.368421052631579, 0.21, -0.008, 3.268
15.378947368421052, 0.14, -0.251, 3.439
15.389473684210527, 0.14, -0.214, 3.232
15.4, 0.21, -0.494, 3.609
15.410526315789474, 0.21, -0.527, 3.39
15.421052631578947, 0.14, -0.531, 3.816
15.43157894736842, 0.14, -0.539, 3.459
15.442105263157895, 0.14, -0.364, 3.276
15.452631578947368, 0.07, -0.571, 3.24
15.463157894736842, 0.21, -0.421, 3.195
15.473684210526315, 0.07, -0.377, 3.345
15.48421052631579, 0.07, -0.324, 3.852
15.494736842105263, 0.07, -0.381, 3.771
15.505263157894737, 0.0, -0.312, 3.783
15.51578947368421, 0.07, -0.251, 3.439
15.526315789473685, 0.0, -0.308, 3.358
15.536842105263158, 0.14, -0.316, 3.001
15.547368421052632, 0.21, -0.158, 3.313
15.557894736842105, 0.21, -0.377, 3.345
15.56842105263158, 0.28, -0.214, 3.232
15.578947368421053, 0.07, -0.308, 3.358
15.589473684210526, 0.07, -0.214, 3.232
15.6, 0.0, -0.214, 3.232
15.610526315789473, 0.0, -0.235, 2.944
15.621052631578948, -0.07, -0.227, 3.301
15.631578947368421, -0.07, -0.251, 3.439
15.642105263157895, 0.0, -0.113, 3.463
15.652631578947368, 0.21, -0.077, 3.256
15.663157894736843, 0.07, -0.109, 3.037
15.673684210526316, -0.07, -0.239, 3.37
15.68421052631579, -0.07, -0.125, 3.532
15.694736842105263, -0.21, -0.214, 3.232
15.705263157894738, -0.35, -0.292, 2.863
15.715789473684211, -0.28, -0.255, 2.656
15.726315789473684, -0.28, -0.336, 2.713
15.736842105263158, 0.0, -0.304, 2.932
15.74736842105263, 0.07, -0.247, 3.013
15.757894736842106, -0.14, -0.154, 2.887
15.76842105263158, -0.07, -0.235, 2.944
15.778947368421052, -0.07, -0.385, 2.989
15.789473684210526, -0.21, -0.429, 2.839
15.8, 0.07, -0.206, 3.589
15.810526315789474, 0.14, -0.012, 3.694
15.821052631578947, 0.07, 0.313, 3.467
15.83157894736842, -0.07, 0.524, 3.078
15.842105263157896, 0.07, 0.528, 2.652
15.852631578947369, 0.14, 0.584, 2.733
15.863157894736842, 0.14, 0.641, 2.814
15.873684210526315, -0.14, 0.183, 2.591
15.884210526315789, 0.0, -0.142, 2.818
15.894736842105264, -0.14, -0.223, 2.875
15.905263157894737, -0.14, -0.555, 2.745
15.91578947368421, -0.21, -0.559, 3.171
15.926315789473684, -0.21, -0.612, 2.664
15.936842105263159, -0.07, -0.571, 2.032
15.947368421052632, -0.28, -0.458, 2.194
15.957894736842105, -0.42, -0.263, 2.299
15.968421052631578, -0.21, -0.308, 2.149
15.978947368421053, -0.14, -0.04, 1.841
15.989473684210527, -0.07, 0.126, 2.51
16.0, -0.21, 0.195, 2.522
16.010526315789473, -0.21, 0.418, 2.064
16.021052631578947, 0.0, 0.333, 2.546
16.03157894736842, 0.0, 0.114, 2.579
16.042105263157893, -0.14, 0.114, 2.579
16.05263157894737, -0.14, 0.345, 2.478
16.063157894736843, -0.14, 0.519, 2.295
16.073684210526316, -0.07, 0.369, 2.34
16.08421052631579, 0.14, 0.495, 2.433
16.094736842105263, 0.28, 0.69, 2.538
16.105263157894736, 0.42, 0.402, 2.559
16.11578947368421, 0.21, 0.515, 2.721
16.126315789473683, 0.56, 0.572, 2.802
16.13684210526316, 0.35, 0.438, 2.352
16.147368421052633, 0.14, 0.369, 2.34
16.157894736842106, 0.35, 0.248, 3.029
16.16842105263158, 0.21, -0.064, 3.187
16.178947368421053, 0.21, -0.064, 3.187
16.189473684210526, 0.21, -0.292, 2.863
16.2, 0.21, -0.511, 2.895
16.210526315789473, 0.21, -0.429, 2.839
16.221052631578946, 0.21, -0.348, 2.782
16.231578947368423, 0.21, -0.3, 2.506
16.242105263157896, 0.28, -0.482, 2.332
16.25263157894737, 0.07, -0.417, 2.77
16.263157894736842, 0.07, -0.259, 3.082
16.273684210526316, -0.07, -0.271, 3.151
16.28421052631579, -0.14, -0.133, 3.175
16.294736842105262, -0.07, 0.041, 2.993
16.305263157894736, -0.07, -0.097, 2.968
16.31578947368421, 0.0, -0.34, 3.139
16.326315789473686, 0.0, -0.214, 3.232
16.33684210526316, 0.0, -0.377, 3.345
16.347368421052632, 0.0, -0.178, 3.025
16.357894736842105, 0.0, -0.085, 2.899
16.36842105263158, 0.0, -0.162, 2.53
16.378947368421052, 0.14, -0.178, 3.025
16.389473684210525, 0.14, 0.029, 3.062
16.4, 0.21, 0.321, 2.615
16.410526315789475, 0.28, 0.503, 2.79
16.42105263157895, 0.56, 0.459, 2.64
16.431578947368422, 0.56, 0.596, 2.664
16.442105263157895, 0.63, 0.783, 2.413
16.45263157894737, 0.56, 0.649, 1.963
16.46315789473684, 0.49, 0.669, 2.25
16.473684210526315, 0.42, 0.588, 2.307
16.48421052631579, 0.21, 0.463, 2.214
16.49473684210526, 0.49, 0.24, 2.672
16.50526315789474, 0.35, 0.175, 2.234
16.51578947368421, 0.21, 0.276, 2.465
16.526315789473685, 0.07, 0.069, 2.429
16.53684210526316, 0.07, 0.146, 2.798
16.54736842105263, 0.0, -0.016, 2.911
16.557894736842105, -0.21, -0.028, 2.98
16.568421052631578, -0.21, -0.235, 2.944
16.57894736842105, -0.14, -0.328, 3.07
16.589473684210525, -0.14, -0.259, 3.082
16.6, -0.14, -0.377, 3.345
16.610526315789475, 0.0, -0.401, 3.483
16.621052631578948, -0.21, -0.263, 3.508
16.63157894736842, -0.07, -0.052, 3.118
16.642105263157895, -0.07, -0.146, 3.244
16.652631578947368, -0.14, -0.247, 3.013
16.66315789473684, 0.14, -0.223, 2.875
16.673684210526314, 0.14, 0.045, 2.567
16.68421052631579, 0.14, 0.163, 2.303
16.694736842105264, 0.14, 0.126, 2.51
16.705263157894738, 0.21, 0.3, 2.328
16.71578947368421, 0.56, 0.288, 2.396
16.726315789473684, 0.49, 0.637, 2.031
16.736842105263158, 0.56, 0.965, 1.379
16.74736842105263, 0.7, 1.091, 1.472
16.757894736842104, 0.7, 0.742, 1.837
16.768421052631577, 0.63, 0.625, 2.1
16.778947368421054, 0.56, 0.519, 2.295
16.789473684210527, 0.49, 0.219, 2.384
16.8, 0.84, 0.102, 2.648
16.810526315789474, 0.56, 0.008, 2.774
16.821052631578947, 0.28, -0.21, 2.806
16.83157894736842, 0.21, -0.316, 3.001
16.842105263157894, 0.21, -0.162, 2.53
16.852631578947367, 0.21, -0.093, 2.542
16.86315789473684, -0.14, -0.243, 2.587
16.873684210526317, -0.42, -0.312, 2.575
16.88421052631579, -0.42, -0.405, 2.701
16.894736842105264, -0.63, -0.336, 2.713
16.905263157894737, -0.63, -0.292, 2.863
16.91578947368421, -0.91, -0.32, 3.427
16.926315789473684, -0.7, -0.223, 2.875
16.936842105263157, -0.42, -0.267, 2.725
16.94736842105263, -0.42, -0.385, 2.989
16.957894736842107, -0.63, -0.328, 3.07
16.96842105263158, -0.35, -0.49, 3.183
16.978947368421053, -0.21, -0.689, 3.504
16.989473684210527, 0.0, -0.596, 3.378
17.0, -0.07, -0.721, 3.285
17.010526315789473, 0.0, -0.851, 3.617
17.021052631578947, -0.07, -1.046, 3.512
17.03157894736842, 0.0, -1.216, 3.268
17.042105263157893, -0.07, -1.54, 3.496
17.05263157894737, -0.07, -1.589, 3.771
17.063157894736843, -0.21, -1.512, 4.14
17.073684210526316, 0.14, -1.719, 4.104
17.08421052631579, 0.07, -1.694, 3.966
17.094736842105263, 0.07, -1.463, 3.865
17.105263157894736, 0.14, -1.244, 3.832
17.11578947368421, 0.0, -1.034, 3.443
17.126315789473683, 0.07, -0.932, 3.674
17.13684210526316, 0.21, -0.689, 3.504
17.147368421052633, -0.07, -0.563, 3.597
17.157894736842106, -0.21, -0.356, 3.633
17.16842105263158, -0.21, -0.218, 3.658
17.178947368421053, 0.0, -0.231, 3.727
17.189473684210526, -0.14, -0.137, 3.601
17.2, -0.42, -0.352, 3.208
17.210526315789473, -0.42, -0.332, 3.495
17.221052631578946, -0.35, 0.175, 3.443
17.231578947368423, -0.42, -0.186, 3.877
17.242105263157896, -0.49, -0.275, 3.577
17.25263157894737, -0.28, -0.105, 3.82
17.263157894736842, -0.35, -0.206, 3.589
17.273684210526316, -0.35, -0.251, 3.439
17.28421052631579, -0.28, -0.17, 3.382
17.294736842105262, -0.07, -0.068, 3.613
17.305263157894736, 0.0, -0.02, 3.337
17.31578947368421, 0.07, 0.167, 3.086
17.326315789473686, 0.14, 0.398, 2.984
17.33684210526316, 0.28, 0.179, 3.017
17.347368421052632, 0.21, 0.227, 2.741
17.357894736842105, 0.49, 0.426, 2.421
17.36842105263158, 0.7, 0.596, 2.664
17.378947368421052, 0.63, 0.365, 2.765
17.389473684210525, 0.63, -0.004, 2.843
17.4, 0.63, 0.077, 2.786
17.410526315789475, 0.56, 0.005, 3.199
17.42105263157895, 0.49, -0.04, 3.049
17.431578947368422, 0.42, 0.086, 3.143
17.442105263157895, 0.63, 0.057, 2.498
17.45263157894737, 0.21, -0.146, 3.244
17.46315789473684, 0.21, -0.113, 3.463
17.473684210526315, 0.21, -0.194, 3.52
17.48421052631579, 0.07, -0.263, 3.508
17.49473684210526, 0.07, -0.283, 3.22
17.50526315789474, -0.14, -0.328, 3.07
17.51578947368421, -0.28, -0.332, 3.495
17.526315789473685, -0.21, -0.389, 3.414
17.53684210526316, -0.14, -0.308, 3.358
17.54736842105263, -0.07, -0.101, 3.394
17.557894736842105, -0.21, -0.275, 3.577
17.568421052631578, -0.21, -0.482, 3.54
17.57894736842105, -0.21, -0.393, 3.84
17.589473684210525, -0.21, -0.381, 3.771
17.6, -0.21, -0.344, 3.564
17.610526315789475, -0.42, -0.632, 3.585
17.621052631578948, -0.49, -0.665, 3.366
17.63157894736842, -0.28, -0.758, 3.491
17.642105263157895, -0.28, -0.563, 3.597
17.652631578947368, -0.28, -0.527, 3.39
17.66315789473684, -0.14, -0.632, 3.585
17.673684210526314, 0.14, -0.656, 3.723
17.68421052631579, 0.28, -0.579, 4.092
17.694736842105264, 0.21, -0.243, 3.796
17.705263157894738, 0.28, -0.458, 3.402
17.71578947368421, 0.42, -0.04, 3.049
17.726315789473684, 0.56, -0.166, 2.956
17.736842105263158, 0.28, 0.09, 2.717
17.74736842105263, 0.14, 0.329, 2.972
17.757894736842104, 0.07, 0.191, 2.948
17.768421052631577, -0.14, 0.584, 2.733
17.778947368421054, -0.14, 0.479, 2.928
17.789473684210527, -0.28, 0.325, 3.398
17.8, -0.07, 0.163, 3.512
17.810526315789474, -0.28, -0.081, 3.682
17.821052631578947, -0.35, -0.125, 3.532
17.83157894736842, -0.35, -0.19, 3.094
17.842105263157894, -0.35, -0.121, 3.106
17.852631578947367, -0.28, -0.227, 3.301
17.86315789473684, -0.28, -0.251, 3.439
17.873684210526317, -0.49, -0.377, 3.345
17.88421052631579, -0.42, -0.348, 2.782
17.894736842105264, -0.56, -0.267, 2.725
17.905263157894737, -0.42, -0.186, 2.668
17.91578947368421, -0.42, -0.214, 3.232
17.926315789473684, -0.35, -0.372, 4.128
17.936842105263157, -0.28, -0.283, 4.428
17.94736842105263, 0.07, -0.36, 4.059
17.957894736842107, 0.07, -0.356, 3.633
17.96842105263158, 0.28, -0.368, 3.702
17.978947368421053, 0.49, -0.296, 3.289
17.989473684210527, 0.77, -0.377, 3.345
18.0, 0.63, -0.308, 3.358
18.010526315789473, 0.84, -0.133, 3.175
18.021052631578947, 0.49, -0.275, 3.577
18.03157894736842, 0.35, 0.082, 3.568
18.042105263157893, 0.35, 0.357, 3.617
18.05263157894737, 0.21, 0.369, 3.548
18.063157894736843, 0.07, 0.301, 3.536
18.073684210526316, 0.0, -0.081, 3.682
18.08421052631579, -0.07, -0.158, 3.313
18.094736842105263, -0.21, -0.356, 3.633
18.105263157894736, -0.35, -0.251, 3.439
18.11578947368421, -0.28, -0.401, 3.483
18.126315789473683, -0.28, -0.251, 3.439
18.13684210526316, -0.42, -0.352, 3.208
18.147368421052633, -0.35, -0.239, 3.37
18.157894736842106, -0.21, -0.125, 3.532
18.16842105263158, -0.49, -0.251, 3.439
18.178947368421053, -0.56, -0.296, 3.289
18.189473684210526, -0.49, -0.008, 3.268
18.2, -0.63, -0.296, 3.289
18.210526315789473, -0.42, -0.478, 3.114
18.221052631578946, -0.28, -0.336, 2.713
18.231578947368423, -0.14, -0.097, 2.968
18.242105263157896, -0.21, -0.04, 3.049
18.25263157894737, -0.07, -0.097, 2.968
18.263157894736842, -0.14, -0.19, 3.094
18.273684210526316, -0.28, -0.202, 3.163
18.28421052631579, -0.21, -0.214, 3.232
18.294736842105262, -0.14, -0.259, 3.082
18.305263157894736, 0.0, -0.247, 3.013
18.31578947368421, -0.14, -0.133, 3.175
18.326315789473686, 0.07, -0.064, 3.187
18.33684210526316, -0.07, 0.049, 3.349
18.347368421052632, -0.14, 0.13, 3.293
18.357894736842105, -0.07, 0.28, 3.248
18.36842105263158, -0.07, 0.236, 3.098
18.378947368421052, -0.14, 0.134, 2.867
18.389473684210525, -0.35, -0.097, 2.968
18.4, -0.21, -0.178, 3.025
18.410526315789475, -0.07, -0.052, 3.118
18.42105263157895, -0.07, -0.239, 3.37
18.431578947368422, -0.28, -0.137, 3.601
18.442105263157895, -0.35, -0.158, 3.313
18.45263157894737, -0.28, 0.005, 3.199
18.46315789473684, -0.21, -0.077, 3.256
18.473684210526315, -0.14, -0.028, 2.98
18.48421052631579, 0.0, -0.239, 3.37
18.49473684210526, 0.0, -0.068, 3.613
18.50526315789474, -0.07, -0.275, 3.577
18.51578947368421, -0.14, -0.251, 3.439
18.526315789473685, -0.07, -0.17, 3.382
18.53684210526316, 0.14, -0.089, 3.325
18.54736842105263, 0.21, -0.146, 3.244
18.557894736842105, 0.07, 0.021, 2.705
18.568421052631578, 0.14, 0.276, 2.465
18.57894736842105, 0.14, 0.377, 2.697
18.589473684210525, 0.35, 0.536, 3.009
18.6, 0.14, 0.515, 2.721
18.610526315789475, 0.07, 0.783, 2.413
18.621052631578948, -0.14, 0.714, 2.4
18.63157894736842, -0.14, 0.722, 2.757
18.642105263157895, -0.21, 0.698, 2.895
18.652631578947368, -0.07, 0.629, 2.883
18.66315789473684, -0.07, 0.341, 2.903
18.673684210526314, -0.07, 0.227, 2.741
18.68421052631579, -0.07, 0.159, 2.729
18.694736842105264, 0.14, 0.122, 2.936
18.705263157894738, 0.07, -0.097, 2.968
18.71578947368421, 0.0, 0.021, 2.705
18.726315789473684, -0.07, -0.142, 2.818
18.736842105263158, -0.07, -0.024, 2.555
18.74736842105263, -0.28, 0.365, 2.765
18.757894736842104, -0.14, 0.134, 2.867
18.768421052631577, -0.35, 0.296, 2.753
18.778947368421054, -0.42, 0.122, 2.936
18.789473684210527, -0.28, 0.094, 3.499
18.8, -0.14, -0.032, 3.406
18.810526315789474, -0.14, -0.077, 3.256
18.821052631578947, -0.14, -0.101, 3.394
18.83157894736842, -0.21, -0.271, 3.151
18.842105263157894, -0.14, -0.223, 2.875
18.852631578947367, -0.35, -0.433, 3.264
18.86315789473684, -0.28, -0.446, 3.333
18.873684210526317, -0.35, -0.409, 3.126
18.88421052631579, -0.49, -0.364, 3.276
18.894736842105264, -0.49, -0.227, 3.301
18.905263157894737, -0.42, -0.17, 3.382
18.91578947368421, -0.7, -0.044, 3.475
18.926315789473684, -0.63, -0.056, 3.544
18.936842105263157, -0.49, -0.218, 3.658
18.94736842105263, -0.42, -0.194, 3.52
18.957894736842107, -0.7, -0.364, 3.276
18.96842105263158, -0.7, -0.527, 3.39
18.978947368421053, -0.49, -0.352, 3.208
18.989473684210527, -0.28, -0.263, 3.508
19.0, -0.28, -0.158, 3.313
19.010526315789473, -0.14, -0.008, 3.268
19.021052631578947, -0.28, 0.049, 3.349
19.03157894736842, -0.28, 0.292, 3.179
19.042105263157893, -0.35, 0.086, 3.143
19.05263157894737, -0.28, 0.029, 3.062
19.063157894736843, -0.14, 0.098, 3.074
19.073684210526316, -0.21, -0.004, 2.843
19.08421052631579, -0.28, -0.048, 2.693
19.094736842105263, -0.28, -0.097, 2.968
19.105263157894736, -0.21, -0.235, 2.944
19.11578947368421, -0.07, -0.04, 3.049
19.126315789473683, -0.21, 0.146, 2.798
19.13684210526316, -0.21, -0.064, 3.187
19.147368421052633, -0.21, -0.077, 3.256
19.157894736842106, -0.21, -0.04, 3.049
19.16842105263158, -0.35, 0.008, 2.774
19.178947368421053, -0.21, -0.133, 3.175
19.189473684210526, -0.21, 0.11, 3.005
19.2, -0.35, -0.016, 2.911
19.210526315789473, -0.63, 0.053, 2.924
19.221052631578946, -0.35, -0.166, 2.956
19.231578947368423, -0.42, -0.178, 3.025
19.242105263157896, -0.49, -0.186, 2.668
19.25263157894737, -0.42, -0.109, 3.037
19.263157894736842, -0.42, -0.097, 2.968
19.273684210526316, -0.28, -0.109, 3.037
19.28421052631579, -0.42, -0.271, 3.151
19.294736842105262, -0.28, -0.296, 3.289
19.305263157894736, -0.28, -0.218, 3.658
19.31578947368421, -0.28, -0.101, 3.394
19.326315789473686, -0.35, 0.005, 3.199
19.33684210526316, -0.21, 0.017, 3.13
19.347368421052632, -0.21, -0.133, 3.175
19.357894736842105, -0.28, -0.142, 2.818
19.36842105263158, -0.56, -0.283, 3.22
19.378947368421052, -0.49, -0.47, 3.471
19.389473684210525, -0.42, -0.644, 3.654
19.4, -0.35, -0.612, 3.873
19.410526315789475, -0.42, -0.523, 4.173
19.42105263157895, -0.35, -0.587, 3.735
19.431578947368422, -0.21, -0.433, 3.264
19.442105263157895, -0.28, -0.559, 3.171
19.45263157894737, -0.21, -0.292, 2.863
19.46315789473684, -0.35, -0.178, 3.025
19.473684210526315, -0.14, -0.133, 3.175
19.48421052631579, -0.14, 0.041, 2.993
19.49473684210526, -0.14, 0.098, 3.074
19.50526315789474, -0.14, 0.005, 3.199
19.51578947368421, -0.35, 0.049, 3.349
19.526315789473685, -0.14, 0.268, 3.317
19.53684210526316, -0.14, 0.211, 3.236
19.54736842105263, -0.14, 0.179, 3.017
19.557894736842105, -0.14, 0.029, 3.062
19.568421052631578, -0.21, -0.247, 3.013
19.57894736842105, -0.28, -0.34, 3.139
19.589473684210525, -0.28, -0.49, 3.183
19.6, -0.35, -0.409, 3.126
19.610526315789475, -0.42, -0.283, 3.22
19.621052631578948, -0.49, -0.235, 2.944
19.63157894736842, -0.49, -0.146, 3.244
19.642105263157895, -0.49, -0.133, 3.175
19.652631578947368, -0.56, -0.218, 3.658
19.66315789473684, -0.35, -0.283, 4.428
19.673684210526314, -0.7, -0.454, 4.185
19.68421052631579, -0.56, -0.437, 3.69
19.694736842105264, -0.21, -0.287, 3.645
19.705263157894738, -0.42, -0.356, 3.633
19.71578947368421, -0.28, -0.62, 3.516
19.726315789473684, -0.42, -0.652, 3.297
19.736842105263158, -0.56, -0.527, 3.39
19.74736842105263, -0.49, -0.677, 3.435
19.757894736842104, -0.56, -0.519, 3.747
19.768421052631577, -0.63, -0.368, 3.702
19.778947368421054, -0.7, -0.494, 3.609
19.789473684210527, -0.63, -0.51, 4.104
19.8, -0.63, -0.486, 3.966
19.810526315789474, -0.7, -0.575, 3.666
19.821052631578947, -0.63, -0.393, 3.84
19.83157894736842, -0.49, -0.551, 3.528
19.842105263157894, -0.28, -0.401, 3.483
19.852631578947367, -0.21, -0.47, 3.471
19.86315789473684, -0.35, -0.344, 3.564
19.873684210526317, -0.35, -0.227, 3.301
19.88421052631579, -0.28, -0.247, 3.013
19.894736842105264, -0.21, -0.17, 3.382
19.905263157894737, -0.21, 0.037, 3.418
19.91578947368421, -0.28, -0.016, 2.911
19.926315789473684, -0.35, 0.017, 3.13
19.936842105263157, -0.35, 0.098, 3.074
19.94736842105263, -0.21, 0.11, 3.005
19.957894736842107, -0.07, -0.016, 2.911
19.96842105263158, -0.21, -0.121, 3.106
19.978947368421053, -0.07, -0.097, 2.968
19.989473684210527, -0.21, 0.09, 2.717
20.0, -0.28, 0.159, 2.729
20.010526315789473, -0.42, -0.064, 3.187
20.021052631578947, -0.28, 0.155, 3.155
20.03157894736842, -0.14, 0.317, 3.041
20.042105263157893, -0.35, 0.167, 3.086
20.05263157894737, -0.56, -0.133, 3.175
20.063157894736843, -0.49, 0.134, 2.867
20.073684210526316, -0.42, 0.442, 3.134
20.08421052631579, -0.49, 0.001, 3.625
20.094736842105263, -0.42, -0.125, 3.532
20.105263157894736, -0.49, -0.202, 3.163
20.11578947368421, -0.56, 0.037, 3.418
20.126315789473683, -0.63, 0.118, 3.362
20.13684210526316, -0.42, 0.142, 3.224
20.147368421052633, -0.42, 0.199, 3.305
20.157894736842106, -0.56, -0.02, 3.337
20.16842105263158, -0.49, -0.218, 3.658
20.178947368421053, -0.77, 0.151, 3.581
20.189473684210526, -0.84, -0.227, 3.301
20.2, -0.56, 0.082, 3.568
20.210526315789473, -0.56, -0.182, 3.451
20.221052631578946, -0.35, -0.113, 3.463
20.231578947368423, -0.49, -0.008, 3.268
20.242105263157896, -0.49, 0.118, 3.362
20.25263157894737, -0.35, 0.106, 3.431
20.263157894736842, -0.42, -0.012, 3.694
20.273684210526316, -0.42, -0.125, 3.532
20.28421052631579, -0.35, -0.377, 3.345
20.294736842105262, -0.28, -0.519, 3.747
20.305263157894736, -0.07, -0.579, 4.092
20.31578947368421, 0.07, -0.75, 3.848
20.326315789473686, 0.21, -0.506, 3.678
20.33684210526316, 0.14, -0.437, 3.69
20.347368421052632, 0.0, -0.296, 3.289
20.357894736842105, 0.28, -0.077, 3.256
20.36842105263158, 0.21, -0.008, 3.268
20.378947368421052, 0.14, 0.13, 3.293
20.389473684210525, 0.07, 0.361, 3.191
20.4, -0.14, 0.292, 3.179
20.410526315789475, -0.07, 0.337, 3.329
20.42105263157895, -0.28, 0.487, 3.284
20.431578947368422, -0.28, 0.43, 3.203
20.442105263157895, -0.28, 0.406, 3.341
20.45263157894737, -0.21, 0.556, 3.297
20.46315789473684, -0.21, 0.305, 3.11
20.473684210526315, -0.35, 0.142, 3.224
20.48421052631579, -0.42, -0.008, 3.268
20.49473684210526, -0.49, -0.352, 3.208
20.50526315789474, -0.49, -0.19, 3.094
20.51578947368421, -0.56, -0.239, 3.37
20.526315789473685, -0.49, -0.283, 3.22
20.53684210526316, -0.56, -0.214, 3.232
20.54736842105263, -0.7, -0.34, 3.139
20.557894736842105, -0.91, -0.089, 3.325
20.568421052631578, -0.91, -0.194, 3.52
20.57894736842105, -0.84, -0.397, 4.266
20.589473684210525, -0.7, -0.332, 3.495
20.6, -0.98, -0.446, 3.333
20.610526315789475, -0.84, -0.352, 3.208
20.621052631578948, -0.56, -0.377, 3.345
20.63157894736842, -0.56, -0.583, 3.309
20.642105263157895, -0.56, -0.377, 3.345
20.652631578947368, -0.84, -0.587, 3.735
20.66315789473684, -0.84, -0.656, 3.723
20.673684210526314, -1.05, -0.608, 3.447
20.68421052631579, -1.19, -0.539, 3.459
20.694736842105264, -0.77, -0.417, 3.978
20.705263157894738, -0.84, -0.555, 3.954
20.71578947368421, -0.77, -0.393, 3.84
20.726315789473684, -0.77, -0.437, 3.69
20.736842105263158, -0.84, -0.563, 3.597
20.74736842105263, -0.77, -0.701, 3.573
20.757894736842104, -0.63, -0.725, 3.71
20.768421052631577, -0.56, -0.551, 3.528
20.778947368421054, -0.42, -0.575, 3.666
20.789473684210527, -0.28, -0.746, 3.423
20.8, -0.42, -0.737, 3.779
20.810526315789474, -0.35, -0.608, 3.447
20.821052631578947, -0.28, -0.437, 3.69
20.83157894736842, -0.14, -0.227, 3.301
20.842105263157894, -0.28, -0.158, 3.313
20.852631578947367, -0.21, -0.028, 2.98
20.86315789473684, -0.14, -0.04, 3.049
20.873684210526317, 0.14, 0.017, 3.13
20.88421052631579, 0.07, -0.178, 3.025
20.894736842105264, -0.07, -0.06, 2.761
20.905263157894737, 0.0, 0.081, 2.36
20.91578947368421, 0.07, 0.175, 2.234
20.926315789473684, -0.07, 0.244, 2.246
20.936842105263157, -0.14, 0.313, 2.259
20.94736842105263, -0.07, 0.106, 2.222
20.957894736842107, -0.28, 0.406, 2.133
20.96842105263158, -0.42, 0.227, 2.741
20.978947368421053, -0.21, 0.353, 2.834
20.989473684210527, -0.28, 0.191, 2.948
21.0, -0.21, 0.021, 2.705
21.010526315789473, -0.28, -0.073, 2.83
21.021052631578947, -0.14, -0.198, 2.737
21.03157894736842, -0.28, -0.154, 2.887
21.042105263157893, -0.21, -0.109, 3.037
21.05263157894737, -0.07, -0.17, 3.382
21.063157894736843, -0.07, -0.227, 3.301
21.073684210526316, -0.07, -0.247, 3.013
21.08421052631579, -0.14, -0.373, 2.92
21.094736842105263, -0.21, -0.49, 3.183
21.105263157894736, -0.14, -0.389, 3.414
21.11578947368421, -0.35, -0.352, 3.208
21.126315789473683, -0.28, -0.202, 3.163
21.13684210526316, -0.21, -0.227, 3.301
21.147368421052633, -0.28, -0.06, 2.761
21.157894736842106, -0.14, -0.186, 2.668
21.16842105263158, -0.21, -0.34, 3.139
21.178947368421053, -0.07, -0.502, 3.252
21.189473684210526, 0.07, -0.433, 3.264
21.2, 0.21, -0.344, 3.564
21.210526315789473, 0.21, -0.381, 3.771
21.221052631578946, 0.35, -0.287, 3.645
21.231578947368423, 0.56, -0.275, 3.577
21.242105263157896, 0.56, -0.146, 3.244
21.25263157894737, 0.28, -0.008, 3.268
21.263157894736842, 0.14, 0.292, 3.179
21.273684210526316, 0.28, 0.272, 2.891
21.28421052631579, 0.07, 0.26, 2.96
21.294736842105262, -0.07, 0.398, 2.984
21.305263157894736, -0.14, 0.353, 2.834
21.31578947368421, -0.21, 0.386, 3.053
21.326315789473686, -0.07, 0.365, 2.765
21.33684210526316, -0.14, 0.284, 2.822
21.347368421052632, 0.0, 0.203, 2.879
21.357894736842105, 0.07, 0.159, 2.729
21.36842105263158, 0.28, 0.065, 2.855
21.378947368421052, 0.21, 0.086, 3.143
21.389473684210525, 0.21, 0.053, 2.924
21.4, 0.14, -0.06, 2.761
21.410526315789475, 0.0, 0.008, 2.774
21.42105263157895, -0.21, 0.065, 2.855
21.431578947368422, -0.21, 0.008, 2.774
21.442105263157895, -0.28, 0.021, 2.705
21.45263157894737, -0.42, -0.064, 3.187
21.46315789473684, -0.35, -0.068, 3.613
21.473684210526315, -0.42, -0.344, 3.564
21.48421052631579, -0.49, -0.308, 3.358
21.49473684210526, -0.35, -0.158, 3.313
21.50526315789474, -0.28, -0.089, 3.325
21.51578947368421, -0.14, -0.17, 3.382
21.526315789473685, -0.28, -0.109, 3.037
21.53684210526316, -0.14, 0.179, 3.017
21.54736842105263, 0.07, 0.349, 3.26
21.557894736842105, -0.07, 0.369, 3.548
21.568421052631578, -0.42, 0.325, 3.398
21.57894736842105, -0.63, 0.09, 2.717
21.589473684210525, -1.05, 0.069, 2.429
21.6, -1.33, -0.097, 1.76
21.610526315789475, -0.77, 0.118, 0.945
21.621052631578948, -0.21, -0.044, 1.058
21.63157894736842, 0.07, -0.182, 2.242
21.642105263157895, 0.42, -0.766, 3.135
21.652631578947368, 0.91, -1.228, 3.337
21.66315789473684, 1.33, -1.504, 3.289
21.673684210526314, 1.75, -1.528, 3.427
21.68421052631579, 1.68, -1.451, 3.796
21.694736842105264, 1.68, -1.24, 3.406
21.705263157894738, 1.54, -0.88, 2.972
21.71578947368421, 1.26, -0.466, 3.045
21.726315789473684, 1.12, -0.454, 4.185
21.736842105263158, 0.84, -0.308, 4.566
21.74736842105263, 0.84, 0.094, 4.708
21.757894736842104, 0.91, 0.463, 4.631
21.768421052631577, 1.19, 0.556, 4.505
21.778947368421054, 1.4, 0.475, 4.562
21.789473684210527, 1.19, -0.032, 4.615
21.8, 1.26, -0.007, 4.477
21.810526315789474, 1.12, -0.49, 4.392
21.821052631578947, 1.12, -0.733, 4.562
21.83157894736842, 1.05, -1.102, 4.639
21.842105263157894, 1.12, -1.37, 4.947
21.852631578947367, 1.19, -1.601, 5.049
21.86315789473684, 1.12, -2.006, 5.333
21.873684210526317, 1.12, -2.039, 5.114
21.88421052631579, 1.12, -2.071, 4.895
21.894736842105264, 1.33, -1.771, 4.805
21.905263157894737, 1.19, -1.755, 4.311
21.91578947368421, 0.98, -1.613, 3.909
21.926315789473684, 0.35, -1.37, 3.739
21.936842105263157, 0.28, -1.581, 4.128
21.94736842105263, 0.14, -1.26, 4.327
21.957894736842107, 0.14, -1.216, 4.477
21.96842105263158, 0.14, -1.147, 4.489
21.978947368421053, 0.21, -0.94, 4.526
21.989473684210527, 0.28, -0.571, 4.448
22.0, 0.14, -0.259, 4.29
22.010526315789473, -0.42, -0.154, 4.096
22.021052631578947, -1.33, -0.385, 4.197
22.03157894736842, -1.82, -0.502, 4.461
22.042105263157893, -1.47, -0.348, 3.99
22.05263157894737, -1.19, -0.397, 4.266
22.063157894736843, -0.21, -0.312, 3.783
22.073684210526316, 0.49, -0.62, 3.516
22.08421052631579, 0.84, -0.908, 3.536
22.094736842105263, 1.54, -1.585, 4.554
22.105263157894736, 1.12, -2.071, 4.895
22.11578947368421, 1.19, -2.765, 5.199
22.126315789473683, 1.26, -3.531, 5.917
22.13684210526316, 1.19, -4.768, 6.481
22.147368421052633, 1.96, -5.923, 6.988
22.157894736842106, 2.8, -6.536, 7.235
22.16842105263158, 4.27, -6.507, 7.88
22.178947368421053, 5.11, -6.568, 8.224
22.189473684210526, 5.95, -6.961, 8.439
22.2, 6.02, -6.908, 8.946
22.210526315789473, 6.23, -6.762, 9.327
22.221052631578946, 6.37, -7.139, 10.256
22.231578947368423, 6.37, -7.565, 10.252
22.242105263157896, 6.51, -7.589, 10.39
22.25263157894737, 6.51, -7.075, 9.486
22.263157894736842, 5.53, -6.28, 8.204
22.273684210526316, 4.97, -5.404, 6.866
22.28421052631579, 3.99, -4.711, 7.77
22.294736842105262, 2.8, -3.656, 8.24
22.305263157894736, 1.96, -2.537, 6.732
22.31578947368421, 0.98, -1.341, 5.592
22.326315789473686, 0.49, -0.259, 5.499
22.33684210526316, 0.56, -0.04, 5.466
22.347368421052632, 1.12, 0.548, 5.357
22.357894736842105, 1.89, 1.002, 4.797
22.36842105263158, 2.24, 1.144, 4.395
22.378947368421052, 2.59, 1.456, 4.237
22.389473684210525, 2.45, 1.075, 4.383
22.4, 2.24, 0.743, 4.254
22.410526315789475, 1.61, 0.122, 4.144
22.42105263157895, 1.47, -0.231, 3.727
22.431578947368422, 1.75, -0.515, 3.321
22.442105263157895, 2.03, -1.212, 2.843
22.45263157894737, 2.73, -1.695, 2.758
22.46315789473684, 3.64, -2.157, 2.96
22.473684210526315, 4.9, -2.652, 2.944
22.48421052631579, 5.53, -2.42, 2.843
22.49473684210526, 5.81, -2.696, 2.794
22.50526315789474, 5.81, -2.765, 2.782
22.51578947368421, 4.9, -2.611, 2.312
22.526315789473685, 4.62, -2.692, 2.368
22.53684210526316, 3.92, -3.13, 2.433
22.54736842105263, 3.5, -3.738, 2.255
22.557894736842105, 3.36, -4.188, 2.389
22.568421052631578, 3.57, -4.095, 2.263
22.57894736842105, 3.15, -3.718, 2.543
22.589473684210525, 2.45, -3.637, 3.695
22.6, 1.89, -2.879, 3.828
22.610526315789475, 0.77, -2.108, 3.893
22.621052631578948, -0.21, -1.313, 3.82
22.63157894736842, -0.56, -0.758, 3.491
22.642105263157895, -1.26, -0.377, 3.345
22.652631578947368, -2.03, -0.113, 3.463
22.66315789473684, -2.52, 0.625, 3.309
22.673684210526314, -2.94, 1.209, 3.625
22.68421052631579, -3.29, 1.931, 3.966
22.694736842105264, -3.57, 2.263, 4.095
22.705263157894738, -3.5, 2.896, 4.136
22.71578947368421, -3.29, 3.678, 4.132
22.726315789473684, -2.31, 3.382, 3.795
22.736842105263158, -1.05, 3.317, 3.357
22.74736842105263, 0.07, 2.989, 2.802
22.757894736842104, 1.12, 2.575, 2.729
22.768421052631577, 2.24, 1.343, 2.867
22.778947368421054, 3.15, 0.511, 3.147
22.789473684210527, 4.13, 0.163, 3.512
22.8, 4.34, -0.097, 4.177
22.810526315789474, 4.9, 0.061, 4.489
22.821052631578947, 4.76, -0.308, 4.566
22.83157894736842, 4.55, -0.445, 4.542
22.842105263157894, 4.2, -0.304, 4.14
22.852631578947367, 4.13, -0.308, 4.566
22.86315789473684, 3.85, -0.348, 3.99
22.873684210526317, 3.08, -0.283, 3.22
22.88421052631579, 2.73, -0.162, 2.53
22.894736842105264, 2.1, -0.158, 2.105
22.905263157894737, 1.26, 0.029, 1.853
22.91578947368421, 0.35, 0.179, 1.809
22.926315789473684, -0.28, -0.008, 2.06
22.936842105263157, -0.84, -0.012, 2.486
22.94736842105263, -1.82, -0.04, 1.841
22.957894736842107, -2.59, 0.175, 1.026
22.96842105263158, -2.52, 0.503, 0.373
22.978947368421053, -2.1, 0.608, 0.178
22.989473684210527, -1.33, 0.791, -0.856
23.0, -0.56, 1.127, -1.152
23.010526315789473, -0.28, 1.322, -1.046
23.021052631578947, 0.21, 1.358, -1.253
23.03157894736842, 0.35, 1.415, -1.172
23.042105263157893, 0.56, 1.865, -1.306
23.05263157894737, 0.49, 2.129, -1.188
23.063157894736843, 0.84, 2.587, -0.965
23.073684210526316, 1.26, 2.887, -1.055
23.08421052631579, 1.54, 2.664, -0.596
23.094736842105263, 1.89, 2.19, -0.325
23.105263157894736, 2.24, 1.63, 0.43
23.11578947368421, 2.31, 0.762, 0.916
23.126315789473683, 1.68, 0.377, 1.488
23.13684210526316, 1.26, 0.329, 1.764
23.147368421052633, 0.49, -0.028, 1.772
23.157894736842106, 0.14, -0.016, 1.703
23.16842105263158, -0.28, 0.134, 1.658
23.178947368421053, -0.49, 0.308, 1.476
23.189473684210526, -0.49, 0.483, 1.293
23.2, -1.05, 0.434, 1.569
23.210526315789473, -1.05, 0.754, 1.768
23.221052631578946, -1.33, 0.799, 1.918
23.231578947368423, -1.61, 0.795, 1.135
23.242105263157896, -1.47, 0.787, 0.778
23.25263157894737, -1.82, 0.722, 0.341
23.263157894736842, -2.03, 0.641, 0.397
23.273684210526316, -1.75, 0.6, 1.03
23.28421052631579, -1.33, 0.819, 0.997
23.294736842105262, -1.19, 1.063, 0.827
23.305263157894736, -1.05, 1.257, 0.932
23.31578947368421, -0.42, 1.217, 1.565
23.326315789473686, -0.07, 1.132, 2.048
23.33684210526316, 0.77, 0.471, 2.571
23.347368421052632, 1.12, -0.275, 3.577
23.357894736842105, 1.19, -0.835, 4.331
23.36842105263158, 0.98, -1.102, 4.639
23.378947368421052, 0.21, -1.532, 5.061
23.389473684210525, -0.42, -2.015, 4.976
23.4, -1.05, -2.185, 4.732
23.410526315789475, -1.96, -2.238, 4.226
23.42105263157895, -2.52, -2.23, 3.374
23.431578947368422, -3.08, -1.577, 2.494
23.442105263157895, -3.92, -0.977, 2.316
23.45263157894737, -4.76, -0.312, 1.367
23.46315789473684, -5.11, 0.032, 0.219
23.473684210526315, -4.9, 0.706, -0.373
23.48421052631579, -4.41, 1.318, -0.621
23.49473684210526, -3.15, 2.019, -0.568
23.50526315789474, -2.1, 2.165, -0.187
23.51578947368421, -1.33, 2.332, 0.482
23.526315789473685, -0.84, 2.583, 0.669
23.53684210526316, -0.77, 2.352, 0.77
23.54736842105263, -0.84, 2.202, 0.815
23.557894736842105, -1.19, 2.421, 0.782
23.568421052631578, -0.98, 2.538, 0.519
23.57894736842105, -0.28, 3.183, 0.49
23.589473684210525, 0.42, 3.159, 0.628
23.6, 1.68, 2.462, 1.358
23.610526315789475, 2.45, 1.201, 2.06
23.621052631578948, 3.15, 0.386, 3.053
23.63157894736842, 3.78, -0.425, 3.621
23.642105263157895, 3.71, -1.163, 3.775
23.652631578947368, 3.5, -1.978, 3.561
23.66315789473684, 3.08, -2.432, 4.12
23.673684210526314, 2.59, -2.919, 4.461
23.68421052631579, 1.96, -2.651, 4.153
23.694736842105264, 1.47, -2.145, 4.1
23.705263157894738, 0.91, -1.411, 3.163
23.71578947368421, 0.49, -0.863, 2.478
23.726315789473684, 0.35, -0.499, 1.618
23.736842105263158, 0.28, -0.32, 2.218
23.74736842105263, 0.07, -0.113, 2.255
23.757894736842104, 0.0, 0.28, 2.04
23.768421052631577, -0.28, 0.325, 2.19
23.778947368421054, -0.56, 0.223, 1.959
23.789473684210527, -0.7, 0.292, 1.971
23.8, -0.28, 0.475, 2.145
23.810526315789474, 0.07, 0.722, 1.549
23.821052631578947, 0.77, 0.791, 1.561
23.83157894736842, 1.19, 0.872, 1.504
23.842105263157894, 1.05, 1.067, 1.61
23.852631578947367, 0.77, 1.127, 1.265
23.86315789473684, 0.35, 1.16, 1.484
23.873684210526317, 0.21, 1.448, 1.464
23.88421052631579, 0.14, 1.63, 1.638
23.894736842105264, 0.0, 1.432, 1.958
23.905263157894737, 0.21, 1.184, 2.554
23.91578947368421, 0.42, 0.71, 2.826
23.926315789473684, 0.21, 0.386, 3.053
23.936842105263157, 0.0, -0.032, 3.406
23.94736842105263, -0.35, 0.017, 3.13
23.957894736842107, -0.91, -0.166, 2.956
23.96842105263158, -2.17, -0.231, 2.518
23.978947368421053, -2.8, -0.032, 2.198
23.989473684210527, -2.8, 0.175, 2.234
24.0, -2.87, 0.564, 2.445
24.010526315789473, -2.52, 1.152, 2.336
24.021052631578947, -2.17, 0.815, 2.632
24.03157894736842, -2.38, 0.779, 2.838
24.042105263157893, -1.89, 0.771, 2.482
24.05263157894737, -1.33, 0.463, 2.214
24.063157894736843, -0.63, 0.487, 2.076
24.073684210526316, -0.35, 0.175, 2.234
24.08421052631579, 0.14, -0.093, 2.542
24.094736842105263, 0.63, -0.247, 3.013
24.105263157894736, 0.84, -0.535, 3.033
24.11578947368421, 1.12, -0.685, 3.078
24.126315789473683, 0.98, -0.871, 3.329
24.13684210526316, 0.35, -0.904, 3.11
24.147368421052633, 0.07, -0.551, 3.528
24.157894736842106, -0.28, -0.259, 3.082
24.16842105263158, -0.63, -0.142, 2.818
24.178947368421053, -1.12, 0.15, 2.372
24.189473684210526, -1.33, 0.649, 1.963
24.2, -1.68, 0.758, 1.342
24.210526315789473, -1.54, 0.896, 1.366
24.221052631578946, -1.61, 0.783, 1.204
24.231578947368423, -1.61, 0.908, 1.297
24.242105263157896, -1.19, 0.884, 1.435
24.25263157894737, -1.47, 0.641, 1.606
24.263157894736842, -1.54, 0.369, 1.131
24.273684210526316, -1.89, -0.044, 1.058
24.28421052631579, -1.33, 0.061, 0.864
24.294736842105262, -0.91, 0.231, 1.107
24.305263157894736, -0.63, 0.552, 1.306
24.31578947368421, -0.14, 0.617, 1.744
24.326315789473686, -0.14, 0.499, 2.007
24.33684210526316, -0.07, 0.519, 2.295
24.347368421052632, -0.35, 0.357, 2.409
24.357894736842105, -0.49, 0.13, 2.084
24.36842105263158, -0.56, 0.081, 2.36
24.378947368421052, -0.7, 0.126, 2.51
24.389473684210525, -0.98, -0.044, 2.267
24.4, -0.7, -0.332, 2.287
24.410526315789475, -0.56, -0.288, 2.437
24.42105263157895, -0.56, 0.069, 2.429
24.431578947368422, -0.42, 0.341, 2.903
24.442105263157895, -0.42, 0.037, 3.418
24.45263157894737, -0.35, 0.187, 3.374
24.46315789473684, -0.42, 0.422, 2.847
24.473684210526315, -0.42, 0.353, 2.834
24.48421052631579, -0.28, 0.11, 3.005
24.49473684210526, -0.28, 0.077, 2.786
24.50526315789474, -0.21, 0.053, 2.924
24.51578947368421, -0.35, 0.11, 3.005
24.526315789473685, -0.56, 0.309, 2.684
24.53684210526316, -0.84, 0.138, 2.441
24.54736842105263, -0.84, 0.313, 2.259
24.557894736842105, -0.7, 0.077, 2.786
24.568421052631578, -0.42, -0.052, 3.118
24.57894736842105, -0.56, -0.012, 3.694
24.589473684210525, -0.42, -0.012, 3.694
24.6, -0.21, -0.081, 3.682
24.610526315789475, -0.14, -0.032, 3.406
24.621052631578948, -0.14, -0.016, 2.911
24.63157894736842, -0.21, 0.057, 2.498
24.642105263157895, -0.07, 0.195, 2.522
24.652631578947368, -0.21, 0.045, 2.567
24.66315789473684, -0.35, 0.231, 2.315
24.673684210526314, -0.07, 0.434, 2.778
24.68421052631579, 0.07, 0.45, 2.283
24.694736842105264, -0.07, 0.588, 2.307
24.705263157894738, -0.28, 0.576, 2.376
24.71578947368421, -0.21, 0.734, 2.688
24.726315789473684, -0.07, 0.678, 2.607
24.736842105263158, -0.21, 0.791, 2.769
24.74736842105263, -0.21, 1.055, 2.887
24.757894736842104, -0.07, 0.759, 2.55
24.768421052631577, -0.14, 0.864, 2.356
24.778947368421054, -0.21, 1.395, 2.165
24.789473684210527, -0.84, 1.582, 1.914
24.8, -1.68, 1.898, 1.33
24.810526315789474, -1.96, 2.036, 1.354
24.821052631578947, -2.87, 2.198, 1.241
24.83157894736842, -3.43, 2.129, 1.228
24.842105263157894, -3.99, 1.975, 1.699
24.852631578947367, -4.76, 1.391, 2.591
24.86315789473684, -5.46, 0.856, 3.207
24.873684210526317, -5.74, 0.52, 3.503
24.88421052631579, -6.44, 0.337, 3.329
24.894736842105264, -6.3, 0.576, 3.585
24.905263157894737, -6.09, 0.945, 3.507
24.91578947368421, -5.53, 1.975, 2.907
24.926315789473684, -5.32, 2.332, 2.899
24.936842105263157, -5.74, 3.265, 2.85
24.94736842105263, -5.88, 3.978, 2.834
24.957894736842107, -6.23, 4.506, 3.069
24.96842105263158, -6.51, 5.081, 3.028
24.978947368421053, -6.51, 5.45, 2.951
24.989473684210527, -6.44, 5.499, 2.676
25.0, -6.37, 6.063, 2.704
25.010526315789473, -6.23, 6.273, 2.315
25.021052631578947, -6.09, 6.286, 2.246
25.03157894736842, -5.81, 6.148, 2.221
25.042105263157893, -6.09, 6.115, 2.002
25.05263157894737, -6.02, 6.062, 1.495
25.063157894736843, -5.67, 5.649, 1.423
25.073684210526316, -5.46, 5.474, 1.605
25.08421052631579, -5.04, 5.247, 1.281
25.094736842105263, -4.41, 5.057, 0.749
25.105263157894736, -3.57, 4.501, 1.078
25.11578947368421, -2.66, 4.351, 1.123
25.126315789473683, -2.45, 4.157, 1.017
25.13684210526316, -1.96, 3.881, 0.969
25.147368421052633, -1.89, 4.234, 1.386
25.157894736842106, -2.31, 4.554, 1.585
25.16842105263158, -2.45, 5.024, 1.739
25.178947368421053, -2.45, 5.637, 1.491
25.189473684210526, -2.8, 6.2, 1.52
25.2, -2.8, 6.983, 1.516
25.210526315789473, -2.87, 7.64, 1.418
25.221052631578946, -2.52, 8.686, 1.532
25.231578947368423, -2.38, 9.019, 1.661
25.242105263157896, -1.61, 9.534, 1.965
25.25263157894737, -0.98, 9.866, 2.095
25.263157894736842, -0.84, 10.036, 2.338
25.273684210526316, -0.7, 9.554, 2.253
25.28421052631579, -0.7, 10.154, 2.075
25.294736842105262, -0.49, 10.616, 1.872
25.305263157894736, -0.28, 10.503, 1.71
25.31578947368421, -0.07, 10.604, 1.941
25.326315789473686, 0.35, 9.805, 2.44
25.33684210526316, 0.49, 9.781, 2.578
25.347368421052632, 0.98, 9.663, 2.841
25.357894736842105, 1.47, 9.298, 2.493
25.36842105263158, 1.68, 8.589, 2.083
25.378947368421052, 1.75, 8.613, 1.945
25.389473684210525, 1.82, 8.293, 1.747
25.4, 1.89, 8.017, 1.698
25.410526315789475, 2.31, 7.993, 1.836
25.42105263157895, 2.45, 7.198, 1.909
25.431578947368422, 2.31, 7.251, 2.416
25.442105263157895, 2.59, 7.214, 2.623
25.45263157894737, 2.73, 6.971, 2.793
25.46315789473684, 2.94, 7.016, 2.943
25.473684210526315, 3.22, 7.02, 2.517
25.48421052631579, 3.29, 7.393, 2.014
25.49473684210526, 3.5, 7.559, 1.475
25.50526315789474, 4.13, 7.66, 1.706
25.51578947368421, 4.48, 7.441, 1.739
25.526315789473685, 4.9, 7.015, 1.735
25.53684210526316, 5.39, 6.719, 1.398
25.54736842105263, 5.67, 6.521, 1.718
25.557894736842105, 6.23, 6.01, 2.197
25.568421052631578, 6.09, 5.466, 2.457
25.57894736842105, 5.6, 4.797, 2.623
25.589473684210525, 5.53, 4.209, 2.732
25.6, 5.53, 4.173, 2.939
25.610526315789475, 5.32, 4.153, 2.651
25.621052631578948, 5.11, 4.051, 2.42
25.63157894736842, 5.04, 4.181, 2.088
25.642105263157895, 4.34, 4.562, 1.942
25.652631578947368, 4.2, 4.761, 1.621
25.66315789473684, 3.85, 4.854, 1.496
25.673684210526314, 3.36, 5.215, 1.062
25.68421052631579, 3.5, 5.365, 1.017
25.694736842105264, 3.64, 5.187, 1.625
25.705263157894738, 3.64, 5.288, 1.856
25.71578947368421, 4.06, 5.702, 1.929
25.726315789473684, 4.69, 5.657, 1.779
25.736842105263158, 4.76, 5.588, 1.767
25.74736842105263, 4.69, 5.47, 2.031
25.757894736842104, 4.62, 5.629, 2.343
25.768421052631577, 5.18, 5.556, 2.757
25.778947368421054, 5.6, 5.381, 2.939
25.789473684210527, 6.02, 5.341, 3.572
25.8, 6.51, 5.073, 3.88
25.810526315789474, 6.93, 4.648, 3.876
25.821052631578947, 7.63, 4.177, 3.722
25.83157894736842, 7.14, 3.601, 3.763
25.842105263157894, 6.72, 3.76, 4.075
25.852631578947367, 6.44, 3.678, 4.132
25.86315789473684, 6.37, 3.699, 4.419
25.873684210526317, 6.58, 3.204, 4.403
25.88421052631579, 6.44, 3.387, 4.578
25.894736842105264, 6.58, 3.22, 3.909
25.905263157894737, 7.07, 2.794, 3.905
25.91578947368421, 6.79, 2.563, 4.006
25.926315789473684, 6.44, 2.3, 3.888
25.936842105263157, 5.74, 1.76, 3.722
25.94736842105263, 5.6, 1.075, 3.175
25.957894736842107, 5.6, 0.69, 2.538
25.96842105263158, 5.32, 0.418, 2.064
25.978947368421053, 5.39, -0.077, 2.048
25.989473684210527, 5.6, -0.186, 2.668
26.0, 5.81, -0.405, 2.701
26.010526315789473, 5.67, -0.766, 3.135
26.021052631578947, 5.46, -0.916, 3.179
26.03157894736842, 4.9, -0.961, 3.029
26.042105263157893, 4.76, -1.042, 3.086
26.05263157894737, 4.9, -0.997, 3.236
26.063157894736843, 4.83, -0.835, 3.122
26.073684210526316, 4.48, -1.102, 3.431
26.08421052631579, 3.99, -1.265, 3.544
26.094736842105263, 4.06, -1.127, 3.569
26.105263157894736, 3.78, -1.188, 3.913
26.11578947368421, 3.5, -1.285, 4.465
26.126315789473683, 3.57, -1.123, 4.351
26.13684210526316, 3.22, -1.131, 3.994
26.147368421052633, 3.08, -1.175, 3.844
26.157894736842106, 3.29, -1.005, 4.088
26.16842105263158, 3.64, -1.167, 4.201
26.178947368421053, 4.62, -1.325, 3.889
26.189473684210526, 5.6, -1.585, 4.554
26.2, 6.02, -1.637, 5.255
26.210526315789473, 6.72, -1.658, 4.968
26.221052631578946, 7.28, -2.027, 5.045
26.231578947368423, 8.26, -1.97, 5.126
26.242105263157896, 8.54, -1.974, 5.552
26.25263157894737, 8.61, -1.881, 5.426
26.263157894736842, 9.03, -1.905, 5.564
26.273684210526316, 8.61, -1.8, 5.369
26.28421052631579, 8.05, -1.662, 5.393
26.294736842105262, 7.63, -1.569, 5.268
26.305263157894736, 6.93, -1.508, 4.923
26.31578947368421, 6.09, -1.24, 4.615
26.326315789473686, 5.32, -1.192, 4.339
26.33684210526316, 4.83, -0.96, 4.238
26.347368421052632, 4.13, -0.835, 4.331
26.357894736842105, 3.92, -0.433, 4.473
26.36842105263158, 3.57, -0.32, 4.635
26.378947368421052, 3.08, -0.056, 4.752
26.389473684210525, 3.08, 0.053, 5.34
26.4, 2.8, -0.23, 6.143
26.410526315789475, 2.59, -0.522, 6.589
26.42105263157895, 2.45, -0.648, 6.496
26.431578947368422, 2.38, -0.838, 7.173
26.442105263157895, 2.38, -1.163, 7.401
26.45263157894737, 2.31, -1.366, 6.938
26.46315789473684, 2.03, -1.41, 6.788
26.473684210526315, 1.47, -0.989, 6.01
26.48421052631579, 1.26, -0.79, 5.689
26.49473684210526, 1.05, -0.636, 5.219
26.50526315789474, 0.49, -0.47, 4.68
26.51578947368421, 0.21, -0.068, 4.821
26.526315789473685, 0.0, 0.382, 4.688
26.53684210526316, -0.28, 1.124, 4.108
26.54736842105263, -0.35, 1.59, 3.479
26.557894736842105, -0.63, 2.032, 2.988
26.568421052631578, -0.7, 2.912, 2.433
26.57894736842105, -0.7, 3.005, 2.307
26.589473684210525, -0.7, 3.2, 2.412
26.6, -0.56, 3.532, 2.542
26.610526315789475, -0.63, 2.928, 3.146
26.621052631578948, -0.98, 1.955, 3.828
26.63157894736842, -1.75, 1.229, 3.913
26.642105263157895, -1.89, 0.674, 4.241
26.652631578947368, -2.24, 0.285, 5.239
26.66315789473684, -2.52, -0.064, 5.604
26.673684210526314, -2.45, -0.62, 5.933
26.68421052631579, -1.96, -0.571, 5.657
26.694736842105264, -1.54, -0.372, 5.336
26.705263157894738, -1.19, -0.697, 5.564
26.71578947368421, -1.26, -0.664, 5.783
26.726315789473684, -1.19, -0.79, 5.689
26.736842105263158, -1.54, -1.066, 5.641
26.74736842105263, -1.54, -1.167, 5.41
26.757894736842104, -1.4, -1.212, 5.259
26.768421052631577, -0.63, -0.782, 4.838
26.778947368421054, -0.21, -0.64, 4.436
26.789473684210527, 0.35, -0.547, 4.311
26.8, 0.91, -0.409, 4.335
26.810526315789474, 1.12, -0.166, 4.164
26.821052631578947, 1.26, -0.162, 3.739
26.83157894736842, 1.12, 0.39, 3.836
26.842105263157894, 0.84, 0.609, 3.803
26.852631578947367, 0.49, 0.803, 3.909
26.86315789473684, 0.21, 1.335, 3.718
26.873684210526317, 0.21, 1.428, 3.593
26.88421052631579, 0.21, 1.428, 3.593
26.894736842105264, 0.35, 1.472, 3.743
26.905263157894737, 0.28, 1.091, 3.889
26.91578947368421, 0.21, 0.605, 4.229
26.926315789473684, -0.07, 0.353, 4.043
26.936842105263157, -0.56, 0.041, 4.201
26.94736842105263, -0.91, -0.312, 3.783
26.957894736842107, -1.33, -0.705, 3.998
26.96842105263158, -2.17, -0.896, 3.467
26.978947368421053, -2.66, -0.94, 3.317
26.989473684210527, -3.22, -1.046, 3.512
27.0, -3.64, -1.001, 3.662
27.010526315789473, -4.55, -0.965, 3.455
27.021052631578947, -5.25, -0.754, 3.066
27.03157894736842, -5.67, -0.466, 3.045
27.042105263157893, -6.3, -0.308, 3.358
27.05263157894737, -6.72, -0.02, 3.337
27.063157894736843, -7.42, 0.244, 3.455
27.073684210526316, -8.05, 0.844, 3.276
27.08421052631579, -8.54, 1.185, 3.763
27.094736842105263, -9.38, 1.262, 4.132
27.105263157894736, -10.15, 1.246, 4.627
27.11578947368421, -10.99, 1.529, 5.032
27.126315789473683, -12.81, 1.805, 5.081
27.13684210526316, -13.58, 2.105, 4.991
27.147368421052633, -14.07, 2.231, 5.085
27.157894736842106, -13.86, 2.681, 4.951
27.16842105263158, -13.72, 2.543, 4.926
27.178947368421053, -13.44, 2.474, 4.914
27.189473684210526, -12.95, 2.263, 5.304
27.2, -12.95, 1.907, 5.312
27.210526315789473, -12.53, 1.611, 4.975
27.221052631578946, -12.04, 1.59, 4.687
27.231578947368423, -11.06, 1.396, 4.582
27.242105263157896, -10.29, 1.27, 4.489
