Time, AccelerometerX, AccelerometerY, AccelerometerZ 
0.0, -0.275, -9.857, 1.687
0.01, -0.353, -9.812, 1.656
0.02, -0.353, -9.766, 1.624
0.03, -0.353, -9.78, 1.701
0.04, -0.314, -9.805, 1.617
0.05, -0.275, -9.819, 1.694
0.06, -0.314, -9.889, 1.642
0.07, -0.353, -9.948, 1.751
0.08, -0.431, -9.987, 1.744
0.09, -0.431, -10.18, 1.71
0.1, -0.471, -10.064, 1.731
0.11, -0.471, -10.159, 1.594
0.12, -0.51, -10.2, 1.826
0.13, -0.51, -10.225, 1.742
0.14, -0.51, -10.141, 1.717
0.15, -0.471, -10.121, 1.601
0.16, -0.392, -10.18, 1.71
0.17, -0.353, -10.089, 1.647
0.18, -0.314, -10.012, 1.66
0.19, -0.314, -9.909, 1.758
0.2, -0.275, -9.859, 1.926
0.21, -0.196, -9.696, 1.676
0.22, -0.118, -9.678, 1.799
0.23, -0.078, -9.716, 1.792
0.24, 0.0, -9.748, 1.747
0.25, 0.078, -9.864, 1.726
0.26, 0.118, -9.98, 1.706
0.27, 0.118, -10.069, 1.531
0.28, 0.078, -10.184, 1.51
0.29, 0.0, -10.216, 1.465
0.3, -0.039, -10.268, 1.535
0.31, -0.039, -10.287, 1.413
0.32, -0.157, -10.298, 1.251
0.33, -0.118, -10.278, 1.135
0.34, -0.196, -10.212, 0.988
0.35, -0.275, -10.237, 0.904
0.36, -0.353, -10.191, 0.872
0.37, -0.431, -10.203, 0.71
0.38, -0.51, -10.105, 0.608
0.39, -0.549, -10.046, 0.499
0.4, -0.549, -9.923, 0.481
0.41, -0.549, -9.741, 0.354
0.42, -0.588, -9.53, 0.51
0.43, -0.628, -9.33, 0.506
0.44, -0.628, -9.214, 0.526
0.45, -0.51, -9.241, 0.681
0.46, -0.471, -9.412, 0.969
0.47, -0.431, -9.689, 0.96
0.48, -0.353, -9.953, 0.874
0.49, -0.275, -10.23, 0.865
0.5, -0.235, -10.419, 1.031
0.51, -0.235, -10.559, 0.926
0.52, -0.235, -10.675, 0.906
0.53, -0.314, -10.682, 0.945
0.54, -0.392, -10.637, 0.913
0.55, -0.471, -10.475, 0.901
0.56, -0.471, -10.423, 0.831
0.57, -0.51, -10.346, 0.844
0.58, -0.549, -10.296, 1.013
0.59, -0.549, -10.219, 1.026
0.6, -0.549, -10.198, 0.91
0.61, -0.51, -10.171, 0.756
0.62, -0.51, -10.157, 0.679
0.63, -0.471, -10.157, 0.679
0.64, -0.471, -10.15, 0.64
0.65, -0.431, -10.21, 0.749
0.66, -0.392, -10.216, 0.788
0.67, -0.392, -10.248, 0.742
0.68, -0.353, -10.241, 0.704
0.69, -0.275, -10.248, 0.742
0.7, -0.235, -10.214, 0.549
0.71, -0.157, -10.189, 0.633
0.72, -0.118, -10.144, 0.601
0.73, -0.118, -10.06, 0.576
0.74, -0.118, -10.035, 0.66
0.75, -0.157, -9.989, 0.629
0.76, -0.157, -9.912, 0.642
0.77, -0.196, -9.86, 0.572
0.78, -0.235, -9.878, 0.449
0.79, -0.235, -9.923, 0.481
0.8, -0.235, -9.923, 0.481
0.81, -0.235, -9.916, 0.442
0.82, -0.235, -9.826, 0.379
0.83, -0.235, -9.805, 0.263
0.84, -0.275, -9.812, 0.301
0.85, -0.235, -9.805, 0.263
0.86, -0.157, -9.844, 0.256
0.87, -0.157, -9.844, 0.256
0.88, -0.196, -9.857, 0.333
0.89, -0.196, -9.935, 0.32
0.9, -0.157, -10.005, 0.267
0.91, -0.118, -10.044, 0.26
0.92, -0.118, -9.971, 0.074
0.93, 0.0, -10.01, 0.067
0.94, 0.078, -9.985, 0.151
0.95, 0.196, -9.901, 0.126
0.96, 0.275, -9.907, 0.165
0.97, 0.235, -9.785, 0.147
0.98, 0.235, -9.753, 0.192
0.99, 0.235, -9.76, 0.231
1.0, 0.235, -9.735, 0.315
1.01, 0.118, -9.78, 0.347
1.02, 0.0, -9.973, 0.313
1.03, -0.078, -10.103, 0.37
1.04, -0.157, -10.219, 0.349
1.05, -0.235, -10.432, 0.431
1.06, -0.353, -10.355, 0.445
1.07, -0.471, -10.341, 0.367
1.08, -0.588, -10.375, 0.56
1.09, -0.667, -10.285, 0.497
1.1, -0.667, -10.232, 0.426
1.11, -0.745, -10.33, 0.529
1.12, -0.785, -10.362, 0.483
1.13, -0.824, -10.407, 0.515
1.14, -0.785, -10.407, 0.515
1.15, -0.863, -10.341, 0.367
1.16, -0.824, -10.341, 0.367
1.17, -0.785, -10.269, 0.181
1.18, -0.745, -10.191, 0.195
1.19, -0.667, -10.16, 0.24
1.2, -0.588, -10.069, 0.176
1.21, -0.51, -9.953, 0.197
1.22, -0.431, -9.907, 0.165
1.23, -0.392, -9.907, 0.165
1.24, -0.314, -9.907, 0.165
1.25, -0.275, -9.841, 0.017
1.26, -0.235, -9.841, 0.017
1.27, -0.196, -9.86, -0.105
1.28, -0.196, -9.919, 0.004
1.29, -0.235, -9.88, 0.01
1.3, -0.196, -9.926, 0.042
1.31, -0.235, -9.971, 0.074
1.32, -0.196, -9.991, 0.19
1.33, -0.196, -9.991, 0.19
1.34, -0.157, -9.998, 0.229
1.35, -0.157, -10.019, 0.345
1.36, -0.157, -10.044, 0.26
1.37, -0.078, -10.137, 0.563
1.38, -0.118, -10.194, 0.433
1.39, -0.118, -10.214, 0.549
1.4, -0.118, -10.26, 0.581
1.41, -0.078, -10.305, 0.613
1.42, -0.118, -10.375, 0.56
1.43, -0.157, -10.382, 0.599
1.44, -0.235, -10.382, 0.599
1.45, -0.275, -10.396, 0.676
1.46, -0.314, -10.312, 0.651
1.47, -0.314, -10.273, 0.658
1.48, -0.353, -10.207, 0.51
1.49, -0.353, -10.196, 0.672
1.5, -0.353, -10.112, 0.647
1.51, -0.314, -10.069, 0.854
1.52, -0.353, -9.937, 0.558
1.53, -0.431, -9.88, 0.688
1.54, -0.431, -9.841, 0.694
1.55, -0.431, -9.887, 0.726
1.56, -0.431, -9.919, 0.681
1.57, -0.471, -10.016, 0.783
1.58, -0.431, -10.055, 0.776
1.59, -0.431, -10.132, 0.763
1.6, -0.431, -10.241, 0.704
1.61, -0.471, -10.235, 0.665
1.62, -0.471, -10.273, 0.658
1.63, -0.549, -10.303, 1.051
1.64, -0.549, -10.223, 0.826
1.65, -0.549, -10.216, 0.788
1.66, -0.549, -10.248, 0.742
1.67, -0.549, -10.235, 0.665
1.68, -0.549, -10.228, 0.626
1.69, -0.549, -10.228, 0.626
1.7, -0.51, -10.228, 0.626
1.71, -0.471, -10.148, 0.401
1.72, -0.471, -10.162, 0.479
1.73, -0.392, -10.13, 0.524
1.74, -0.353, -10.06, 0.576
1.75, -0.314, -10.014, 0.544
1.76, -0.235, -9.989, 0.629
1.77, -0.275, -9.95, 0.635
1.78, -0.196, -9.95, 0.635
1.79, -0.157, -9.971, 0.751
1.8, -0.157, -9.982, 0.59
1.81, -0.157, -10.066, 0.615
1.82, -0.157, -10.085, 0.492
1.83, -0.157, -10.164, 0.717
1.84, -0.157, -10.144, 0.601
1.85, -0.196, -10.15, 0.64
1.86, -0.196, -10.182, 0.594
1.87, -0.235, -10.157, 0.679
1.88, -0.235, -10.157, 0.679
1.89, -0.275, -10.15, 0.64
1.9, -0.235, -10.15, 0.64
1.91, -0.275, -10.15, 0.64
1.92, -0.275, -10.164, 0.717
1.93, -0.275, -10.164, 0.717
1.94, -0.235, -10.105, 0.608
1.95, -0.275, -10.105, 0.608
1.96, -0.275, -10.098, 0.569
1.97, -0.275, -10.073, 0.654
1.98, -0.275, -10.073, 0.654
1.99, -0.314, -10.066, 0.615
2.0, -0.314, -10.112, 0.647
2.01, -0.353, -10.08, 0.692
2.02, -0.314, -10.066, 0.615
2.03, -0.314, -10.073, 0.654
2.04, -0.353, -10.06, 0.576
2.05, -0.431, -10.035, 0.66
2.06, -0.392, -10.048, 0.738
2.07, -0.431, -10.06, 0.576
2.08, -0.431, -10.066, 0.615
2.09, -0.431, -10.073, 0.654
2.1, -0.471, -10.073, 0.654
2.11, -0.431, -10.098, 0.569
2.12, -0.471, -10.105, 0.608
2.13, -0.471, -10.112, 0.647
2.14, -0.392, -10.08, 0.692
2.15, -0.314, -10.137, 0.563
2.16, -0.275, -10.123, 0.485
2.17, -0.275, -10.098, 0.569
2.18, -0.275, -10.15, 0.64
2.19, -0.235, -10.125, 0.724
2.2, -0.235, -10.105, 0.608
2.21, -0.235, -10.112, 0.647
2.22, -0.235, -10.112, 0.647
2.23, -0.235, -10.028, 0.622
2.24, -0.196, -10.041, 0.699
2.25, -0.235, -10.08, 0.692
2.26, -0.235, -10.041, 0.699
2.27, -0.235, -10.041, 0.699
2.28, -0.196, -10.094, 0.769
2.29, -0.235, -10.087, 0.731
2.3, -0.235, -10.125, 0.724
2.31, -0.314, -10.123, 0.485
2.32, -0.235, -10.105, 0.608
2.33, -0.235, -10.164, 0.717
2.34, -0.235, -10.125, 0.724
2.35, -0.275, -10.157, 0.679
2.36, -0.275, -10.125, 0.724
2.37, -0.314, -10.094, 0.769
2.38, -0.314, -10.139, 0.801
2.39, -0.275, -10.08, 0.692
2.4, -0.314, -10.125, 0.724
2.41, -0.314, -10.105, 0.608
2.42, -0.314, -10.119, 0.685
2.43, -0.235, -10.139, 0.801
2.44, -0.235, -10.191, 0.872
2.45, -0.275, -10.157, 0.679
2.46, -0.275, -10.125, 0.724
2.47, -0.275, -10.139, 0.801
2.48, -0.314, -10.132, 0.763
2.49, -0.314, -10.125, 0.724
2.5, -0.275, -10.132, 0.763
2.51, -0.235, -10.1, 0.808
2.52, -0.275, -10.08, 0.692
2.53, -0.235, -10.055, 0.776
2.54, -0.235, -10.041, 0.699
2.55, -0.235, -10.08, 0.692
2.56, -0.235, -10.048, 0.738
2.57, -0.235, -10.107, 0.847
2.58, -0.275, -10.119, 0.685
2.59, -0.275, -10.094, 0.769
2.6, -0.275, -10.119, 0.685
2.61, -0.275, -10.164, 0.717
2.62, -0.275, -10.164, 0.717
2.63, -0.275, -10.132, 0.763
2.64, -0.235, -10.125, 0.724
2.65, -0.275, -10.1, 0.808
2.66, -0.275, -10.164, 0.717
2.67, -0.275, -10.132, 0.763
2.68, -0.314, -10.15, 0.64
2.69, -0.275, -10.125, 0.724
2.7, -0.275, -10.1, 0.808
2.71, -0.275, -10.08, 0.692
2.72, -0.314, -10.073, 0.654
2.73, -0.353, -10.087, 0.731
2.74, -0.392, -10.119, 0.685
2.75, -0.353, -10.08, 0.692
2.76, -0.353, -10.1, 0.808
2.77, -0.314, -10.08, 0.692
2.78, -0.314, -10.073, 0.654
2.79, -0.314, -10.073, 0.654
2.8, -0.275, -10.041, 0.699
2.81, -0.314, -10.035, 0.66
2.82, -0.275, -10.073, 0.654
2.83, -0.314, -10.066, 0.615
2.84, -0.275, -10.119, 0.685
2.85, -0.314, -10.08, 0.692
2.86, -0.314, -10.098, 0.569
2.87, -0.314, -10.073, 0.654
2.88, -0.275, -10.112, 0.647
2.89, -0.275, -10.157, 0.679
2.9, -0.275, -10.112, 0.647
2.91, -0.235, -10.105, 0.608
2.92, -0.235, -10.073, 0.654
2.93, -0.235, -10.007, 0.506
2.94, -0.275, -10.073, 0.654
2.95, -0.235, -10.08, 0.692
2.96, -0.235, -10.053, 0.538
2.97, -0.235, -10.08, 0.692
2.98, -0.235, -10.119, 0.685
2.99, -0.235, -10.119, 0.685
3.0, -0.235, -10.112, 0.647
3.01, -0.235, -10.112, 0.647
3.02, -0.275, -10.144, 0.601
3.03, -0.235, -10.144, 0.601
3.04, -0.275, -10.112, 0.647
3.05, -0.275, -10.105, 0.608
3.06, -0.235, -10.066, 0.615
3.07, -0.275, -10.105, 0.608
3.08, -0.235, -10.105, 0.608
3.09, -0.275, -10.105, 0.608
3.1, -0.235, -10.112, 0.647
3.11, -0.314, -10.105, 0.608
3.12, -0.275, -10.105, 0.608
3.13, -0.275, -10.066, 0.615
3.14, -0.235, -10.098, 0.569
3.15, -0.275, -10.098, 0.569
3.16, -0.235, -10.091, 0.531
3.17, -0.235, -10.053, 0.538
3.18, -0.235, -10.066, 0.615
3.19, -0.275, -10.091, 0.531
3.2, -0.275, -10.053, 0.538
3.21, -0.275, -10.053, 0.538
3.22, -0.235, -10.06, 0.576
3.23, -0.235, -10.08, 0.692
3.24, -0.235, -10.098, 0.569
3.25, -0.235, -10.098, 0.569
3.26, -0.275, -10.085, 0.492
3.27, -0.275, -10.032, 0.422
3.28, -0.275, -10.098, 0.569
3.29, -0.235, -10.098, 0.569
3.3, -0.275, -10.039, 0.46
3.31, -0.314, -10.091, 0.531
3.32, -0.275, -10.091, 0.531
3.33, -0.275, -10.119, 0.685
3.34, -0.275, -10.085, 0.492
3.35, -0.275, -10.091, 0.531
3.36, -0.275, -10.21, 0.749
3.37, -0.275, -10.091, 0.531
3.38, -0.275, -10.112, 0.647
3.39, -0.235, -10.085, 0.492
3.4, -0.235, -10.144, 0.601
3.41, -0.235, -10.123, 0.485
3.42, -0.275, -10.123, 0.485
3.43, -0.275, -10.13, 0.524
3.44, -0.275, -10.085, 0.492
3.45, -0.275, -10.071, 0.415
3.46, -0.314, -10.091, 0.531
3.47, -0.275, -10.091, 0.531
3.48, -0.314, -10.078, 0.454
3.49, -0.314, -10.091, 0.531
3.5, -0.314, -10.071, 0.415
3.51, -0.353, -10.032, 0.422
3.52, -0.314, -10.071, 0.415
3.53, -0.353, -10.091, 0.531
3.54, -0.314, -10.091, 0.531
3.55, -0.275, -10.085, 0.492
3.56, -0.314, -10.098, 0.569
3.57, -0.275, -10.078, 0.454
3.58, -0.275, -10.071, 0.415
3.59, -0.235, -10.091, 0.531
3.6, -0.235, -10.039, 0.46
3.61, -0.275, -10.032, 0.422
3.62, -0.275, -10.053, 0.538
3.63, -0.235, -10.053, 0.538
3.64, -0.235, -10.066, 0.615
3.65, -0.235, -10.046, 0.499
3.66, -0.196, -10.039, 0.46
3.67, -0.196, -10.091, 0.531
3.68, -0.235, -10.123, 0.485
3.69, -0.235, -10.15, 0.64
3.7, -0.235, -10.175, 0.556
3.71, -0.235, -10.144, 0.601
3.72, -0.235, -10.196, 0.672
3.73, -0.235, -10.15, 0.64
3.74, -0.275, -10.164, 0.717
3.75, -0.314, -10.112, 0.647
3.76, -0.275, -10.105, 0.608
3.77, -0.235, -10.112, 0.647
3.78, -0.196, -10.112, 0.647
3.79, -0.196, -10.15, 0.64
3.8, -0.235, -10.144, 0.601
3.81, -0.235, -10.098, 0.569
3.82, -0.196, -10.112, 0.647
3.83, -0.235, -10.112, 0.647
3.84, -0.275, -10.105, 0.608
3.85, -0.275, -10.112, 0.647
3.86, -0.235, -10.119, 0.685
3.87, -0.275, -10.073, 0.654
3.88, -0.275, -10.087, 0.731
3.89, -0.314, -10.06, 0.576
3.9, -0.314, -10.06, 0.576
3.91, -0.314, -10.06, 0.576
3.92, -0.275, -10.028, 0.622
3.93, -0.275, -10.048, 0.738
3.94, -0.235, -10.041, 0.699
3.95, -0.275, -10.08, 0.692
3.96, -0.235, -10.098, 0.569
3.97, -0.196, -10.15, 0.64
3.98, -0.196, -10.157, 0.679
3.99, -0.196, -10.157, 0.679
4.0, -0.196, -10.144, 0.601
4.01, -0.235, -10.175, 0.556
4.02, -0.196, -10.137, 0.563
4.03, -0.196, -10.137, 0.563
4.04, -0.196, -10.15, 0.64
4.05, -0.235, -10.091, 0.531
4.06, -0.196, -10.091, 0.531
4.07, -0.196, -10.06, 0.576
4.08, -0.196, -10.098, 0.569
4.09, -0.275, -10.105, 0.608
4.1, -0.275, -10.098, 0.569
4.11, -0.235, -10.073, 0.654
4.12, -0.235, -10.066, 0.615
4.13, -0.235, -10.105, 0.608
4.14, -0.235, -10.137, 0.563
4.15, -0.235, -10.15, 0.64
4.16, -0.235, -10.13, 0.524
4.17, -0.196, -10.098, 0.569
4.18, -0.235, -10.137, 0.563
4.19, -0.196, -10.13, 0.524
4.2, -0.196, -10.15, 0.64
4.21, -0.157, -10.105, 0.608
4.22, -0.157, -10.091, 0.531
4.23, -0.196, -10.105, 0.608
4.24, -0.157, -10.085, 0.492
4.25, -0.196, -10.085, 0.492
4.26, -0.235, -10.091, 0.531
4.27, -0.235, -10.105, 0.608
4.28, -0.235, -10.098, 0.569
4.29, -0.235, -10.098, 0.569
4.3, -0.235, -10.053, 0.538
4.31, -0.235, -10.091, 0.531
4.32, -0.275, -10.085, 0.492
4.33, -0.275, -10.039, 0.46
4.34, -0.275, -10.085, 0.492
4.35, -0.314, -10.112, 0.647
4.36, -0.275, -10.06, 0.576
4.37, -0.275, -10.085, 0.492
4.38, -0.275, -10.091, 0.531
4.39, -0.275, -10.105, 0.608
4.4, -0.275, -10.144, 0.601
4.41, -0.235, -10.144, 0.601
4.42, -0.196, -10.137, 0.563
4.43, -0.196, -10.08, 0.692
4.44, -0.157, -10.144, 0.601
4.45, -0.196, -10.144, 0.601
4.46, -0.196, -10.112, 0.647
4.47, -0.196, -10.105, 0.608
4.48, -0.196, -10.119, 0.685
4.49, -0.196, -10.091, 0.531
4.5, -0.196, -10.105, 0.608
4.51, -0.235, -10.137, 0.563
4.52, -0.196, -10.091, 0.531
4.53, -0.196, -10.123, 0.485
4.54, -0.235, -10.066, 0.615
4.55, -0.235, -10.098, 0.569
4.56, -0.196, -10.105, 0.608
4.57, -0.235, -10.057, 0.338
4.58, -0.196, -10.087, 0.731
4.59, -0.157, -10.098, 0.569
4.6, -0.196, -10.085, 0.492
4.61, -0.196, -10.098, 0.569
4.62, -0.157, -10.078, 0.454
4.63, -0.157, -10.137, 0.563
4.64, -0.157, -10.137, 0.563
4.65, -0.196, -10.091, 0.531
4.66, -0.157, -10.105, 0.608
4.67, -0.235, -10.091, 0.531
4.68, -0.196, -10.066, 0.615
4.69, -0.157, -10.046, 0.499
4.7, -0.157, -10.021, 0.583
4.71, -0.196, -10.073, 0.654
4.72, -0.235, -10.078, 0.454
4.73, -0.157, -10.078, 0.454
4.74, -0.157, -10.078, 0.454
4.75, -0.157, -10.112, 0.647
4.76, -0.157, -10.091, 0.531
4.77, -0.157, -10.112, 0.647
4.78, -0.157, -10.091, 0.531
4.79, -0.157, -10.144, 0.601
4.8, -0.157, -10.15, 0.64
4.81, -0.157, -10.182, 0.594
4.82, -0.157, -10.175, 0.556
4.83, -0.157, -10.144, 0.601
4.84, -0.196, -10.119, 0.685
4.85, -0.157, -10.105, 0.608
4.86, -0.157, -10.066, 0.615
4.87, -0.157, -10.066, 0.615
4.88, -0.157, -10.091, 0.531
4.89, -0.118, -10.098, 0.569
4.9, -0.157, -10.085, 0.492
4.91, -0.157, -10.091, 0.531
4.92, -0.157, -10.144, 0.601
4.93, -0.157, -10.137, 0.563
4.94, -0.157, -10.091, 0.531
4.95, -0.118, -10.098, 0.569
4.96, -0.118, -10.169, 0.517
4.97, -0.157, -10.13, 0.524
4.98, -0.157, -10.119, 0.685
4.99, -0.118, -10.15, 0.64
5.0, -0.118, -10.091, 0.531
5.01, -0.078, -10.085, 0.492
5.02, -0.078, -10.13, 0.524
5.03, -0.118, -10.13, 0.524
5.04, -0.157, -10.098, 0.569
5.05, -0.157, -10.053, 0.538
5.06, -0.157, -10.06, 0.576
5.07, -0.118, -10.085, 0.492
5.08, -0.078, -10.105, 0.608
5.09, -0.118, -10.085, 0.492
5.1, -0.118, -10.112, 0.647
5.11, -0.118, -10.112, 0.647
5.12, -0.118, -10.091, 0.531
5.13, -0.157, -10.13, 0.524
5.14, -0.118, -10.175, 0.556
5.15, -0.118, -10.164, 0.717
5.16, -0.078, -10.137, 0.563
5.17, -0.078, -10.169, 0.517
5.18, -0.039, -10.137, 0.563
5.19, -0.039, -10.15, 0.64
5.2, -0.039, -10.098, 0.569
5.21, -0.078, -10.098, 0.569
5.22, -0.118, -10.15, 0.64
5.23, -0.118, -10.13, 0.524
5.24, -0.118, -10.13, 0.524
5.25, -0.157, -10.13, 0.524
5.26, -0.157, -10.189, 0.633
5.27, -0.157, -10.15, 0.64
5.28, -0.157, -10.098, 0.569
5.29, -0.157, -10.085, 0.492
5.3, -0.196, -10.137, 0.563
5.31, -0.196, -10.13, 0.524
5.32, -0.157, -10.13, 0.524
5.33, -0.157, -10.137, 0.563
5.34, -0.157, -10.137, 0.563
5.35, -0.157, -10.137, 0.563
5.36, -0.157, -10.091, 0.531
5.37, -0.157, -10.105, 0.608
5.38, -0.157, -10.091, 0.531
5.39, -0.118, -10.039, 0.46
5.4, -0.078, -10.144, 0.601
5.41, -0.039, -10.091, 0.531
5.42, 0.0, -10.091, 0.531
5.43, 0.0, -10.105, 0.608
5.44, 0.0, -10.105, 0.608
5.45, 0.0, -10.098, 0.569
5.46, -0.039, -10.098, 0.569
5.47, 0.0, -10.119, 0.685
5.48, 0.0, -10.137, 0.563
5.49, -0.039, -10.137, 0.563
5.5, 0.0, -10.137, 0.563
5.51, -0.078, -10.184, 0.833
5.52, -0.039, -10.196, 0.672
5.53, -0.039, -10.175, 0.556
5.54, -0.078, -10.13, 0.524
5.55, -0.039, -10.137, 0.563
5.56, -0.039, -10.098, 0.569
5.57, -0.039, -10.078, 0.454
5.58, -0.039, -10.105, 0.608
5.59, -0.078, -10.123, 0.485
5.6, -0.039, -10.144, 0.601
5.61, -0.039, -10.144, 0.601
5.62, -0.039, -10.137, 0.563
5.63, -0.039, -10.137, 0.563
5.64, -0.078, -10.123, 0.485
5.65, 0.0, -10.157, 0.679
5.66, -0.078, -10.06, 0.576
5.67, -0.039, -10.06, 0.576
5.68, -0.039, -10.091, 0.531
5.69, -0.039, -10.105, 0.608
5.7, -0.078, -10.13, 0.524
5.71, -0.078, -10.091, 0.531
5.72, -0.078, -10.13, 0.524
5.73, -0.078, -10.13, 0.524
5.74, -0.078, -10.091, 0.531
5.75, -0.118, -10.098, 0.569
5.76, -0.118, -10.13, 0.524
5.77, -0.078, -10.105, 0.608
5.78, -0.078, -10.057, 0.338
5.79, -0.078, -10.085, 0.492
5.8, -0.078, -10.098, 0.569
5.81, -0.078, -10.144, 0.601
5.82, -0.078, -10.144, 0.601
5.83, -0.078, -10.13, 0.524
5.84, -0.078, -10.119, 0.685
5.85, -0.078, -10.123, 0.485
5.86, -0.039, -10.085, 0.492
5.87, -0.039, -10.085, 0.492
5.88, -0.039, -10.071, 0.415
5.89, -0.078, -10.105, 0.608
5.9, -0.078, -10.066, 0.615
5.91, -0.078, -10.091, 0.531
5.92, -0.078, -10.071, 0.415
5.93, -0.078, -10.13, 0.524
5.94, -0.078, -10.091, 0.531
5.95, -0.039, -10.144, 0.601
5.96, 0.0, -10.144, 0.601
5.97, 0.0, -10.137, 0.563
5.98, 0.0, -10.13, 0.524
5.99, 0.0, -10.175, 0.556
6.0, 0.039, -10.175, 0.556
6.01, 0.0, -10.144, 0.601
6.02, -0.039, -10.123, 0.485
6.03, -0.039, -10.078, 0.454
6.04, -0.078, -10.13, 0.524
6.05, -0.078, -10.103, 0.37
6.06, -0.039, -10.137, 0.563
6.07, -0.078, -10.116, 0.447
6.08, -0.078, -10.13, 0.524
6.09, -0.078, -10.105, 0.608
6.1, -0.118, -10.091, 0.531
6.11, -0.118, -10.105, 0.608
6.12, -0.118, -10.13, 0.524
6.13, -0.118, -10.137, 0.563
6.14, -0.078, -10.137, 0.563
6.15, -0.078, -10.144, 0.601
6.16, -0.118, -10.155, 0.44
6.17, -0.118, -10.157, 0.679
6.18, -0.157, -10.157, 0.679
6.19, -0.118, -10.085, 0.492
6.2, -0.118, -10.053, 0.538
6.21, -0.118, -10.06, 0.576
6.22, -0.118, -10.06, 0.576
6.23, -0.118, -10.085, 0.492
6.24, -0.078, -10.098, 0.569
6.25, -0.078, -10.098, 0.569
6.26, -0.078, -10.105, 0.608
6.27, -0.078, -10.137, 0.563
6.28, -0.039, -10.15, 0.64
6.29, -0.039, -10.137, 0.563
6.3, -0.039, -10.098, 0.569
6.31, 0.0, -10.112, 0.647
6.32, -0.039, -10.119, 0.685
6.33, -0.039, -10.105, 0.608
6.34, -0.039, -10.098, 0.569
6.35, -0.039, -10.085, 0.492
6.36, -0.039, -10.13, 0.524
6.37, -0.039, -10.123, 0.485
6.38, 0.0, -10.144, 0.601
6.39, 0.0, -10.144, 0.601
6.4, 0.0, -10.13, 0.524
6.41, -0.039, -10.155, 0.44
6.42, -0.039, -10.169, 0.517
6.43, -0.078, -10.13, 0.524
6.44, -0.039, -10.13, 0.524
6.45, -0.039, -10.091, 0.531
6.46, -0.039, -10.13, 0.524
6.47, -0.039, -10.091, 0.531
6.48, -0.039, -10.085, 0.492
6.49, -0.039, -10.098, 0.569
6.5, -0.039, -10.091, 0.531
6.51, 0.0, -10.085, 0.492
6.52, -0.039, -10.053, 0.538
6.53, -0.039, -10.078, 0.454
6.54, -0.078, -10.06, 0.576
6.55, -0.039, -10.039, 0.46
6.56, -0.078, -10.091, 0.531
6.57, -0.078, -10.046, 0.499
6.58, -0.039, -10.064, 0.376
6.59, -0.078, -10.064, 0.376
6.6, -0.078, -10.039, 0.46
6.61, -0.039, -10.06, 0.576
6.62, -0.039, -10.053, 0.538
6.63, -0.039, -10.091, 0.531
6.64, -0.039, -10.13, 0.524
6.65, -0.078, -10.091, 0.531
6.66, -0.078, -10.105, 0.608
6.67, -0.039, -10.085, 0.492
6.68, -0.078, -10.137, 0.563
6.69, -0.118, -10.144, 0.601
6.7, -0.118, -10.123, 0.485
6.71, -0.118, -10.182, 0.594
6.72, -0.078, -10.13, 0.524
6.73, -0.118, -10.171, 0.756
6.74, -0.078, -10.13, 0.524
6.75, -0.078, -10.105, 0.608
6.76, -0.039, -10.091, 0.531
6.77, -0.039, -10.078, 0.454
6.78, -0.078, -10.078, 0.454
6.79, -0.078, -10.13, 0.524
6.8, -0.078, -10.098, 0.569
6.81, -0.039, -10.13, 0.524
6.82, 0.0, -10.078, 0.454
6.83, 0.0, -10.078, 0.454
6.84, 0.039, -10.13, 0.524
6.85, 0.039, -10.125, 0.724
6.86, -0.039, -10.105, 0.608
6.87, -0.039, -10.091, 0.531
6.88, 0.0, -10.053, 0.538
6.89, -0.039, -10.13, 0.524
6.9, -0.039, -10.098, 0.569
6.91, -0.039, -10.098, 0.569
6.92, 0.0, -10.078, 0.454
6.93, 0.0, -10.091, 0.531
6.94, -0.039, -10.085, 0.492
6.95, -0.039, -10.169, 0.517
6.96, -0.039, -10.123, 0.485
6.97, 0.0, -10.116, 0.447
6.98, -0.039, -10.123, 0.485
6.99, -0.039, -10.162, 0.479
7.0, -0.078, -10.169, 0.517
7.01, -0.078, -10.123, 0.485
7.02, -0.118, -10.169, 0.517
7.03, -0.078, -10.155, 0.44
7.04, -0.039, -10.13, 0.524
7.05, -0.078, -10.175, 0.556
7.06, -0.118, -10.141, 0.363
7.07, -0.118, -10.123, 0.485
7.08, -0.078, -10.13, 0.524
7.09, -0.157, -10.137, 0.563
7.1, -0.078, -10.13, 0.524
7.11, -0.078, -10.091, 0.531
7.12, -0.039, -10.064, 0.376
7.13, -0.078, -10.091, 0.531
7.14, -0.078, -10.091, 0.531
7.15, -0.078, -10.091, 0.531
7.16, -0.078, -10.137, 0.563
7.17, -0.078, -10.13, 0.524
7.18, -0.118, -10.13, 0.524
7.19, -0.118, -10.13, 0.524
7.2, -0.118, -10.085, 0.492
7.21, -0.118, -10.098, 0.569
7.22, -0.078, -10.091, 0.531
7.23, -0.039, -10.085, 0.492
7.24, -0.039, -10.071, 0.415
7.25, 0.0, -10.091, 0.531
7.26, 0.039, -10.066, 0.615
7.27, 0.039, -10.091, 0.531
7.28, 0.0, -10.123, 0.485
7.29, -0.078, -10.112, 0.647
7.3, -0.078, -10.112, 0.647
7.31, -0.078, -10.091, 0.531
7.32, -0.078, -10.105, 0.608
7.33, -0.078, -10.06, 0.576
7.34, -0.078, -10.112, 0.647
7.35, -0.118, -10.098, 0.569
7.36, -0.118, -10.098, 0.569
7.37, -0.118, -10.098, 0.569
7.38, -0.118, -10.116, 0.447
7.39, -0.118, -10.169, 0.517
7.4, -0.118, -10.203, 0.71
7.41, -0.118, -10.091, 0.531
7.42, -0.157, -10.137, 0.563
7.43, -0.118, -10.098, 0.569
7.44, -0.157, -10.105, 0.608
7.45, -0.157, -10.13, 0.524
7.46, -0.118, -10.137, 0.563
7.47, -0.118, -10.091, 0.531
7.48, -0.078, -10.098, 0.569
7.49, -0.078, -10.144, 0.601
7.5, -0.078, -10.13, 0.524
7.51, -0.118, -10.085, 0.492
7.52, -0.118, -10.112, 0.647
7.53, -0.078, -10.123, 0.485
7.54, -0.118, -10.15, 0.64
7.55, -0.078, -10.091, 0.531
7.56, -0.118, -10.06, 0.576
7.57, -0.078, -10.091, 0.531
7.58, -0.078, -10.137, 0.563
7.59, -0.118, -10.157, 0.679
7.6, -0.118, -10.091, 0.531
7.61, -0.118, -10.098, 0.569
7.62, -0.078, -10.137, 0.563
7.63, -0.118, -10.116, 0.447
7.64, -0.118, -10.182, 0.594
7.65, -0.118, -10.137, 0.563
7.66, -0.118, -10.13, 0.524
7.67, -0.118, -10.091, 0.531
7.68, -0.078, -10.098, 0.569
7.69, -0.078, -10.098, 0.569
7.7, -0.078, -10.112, 0.647
7.71, -0.078, -10.105, 0.608
7.72, -0.078, -10.073, 0.654
7.73, -0.078, -10.105, 0.608
7.74, -0.039, -10.066, 0.615
7.75, -0.039, -10.091, 0.531
7.76, -0.039, -10.137, 0.563
7.77, 0.0, -10.144, 0.601
7.78, 0.0, -10.105, 0.608
7.79, 0.0, -10.066, 0.615
7.8, 0.0, -10.066, 0.615
7.81, -0.039, -10.053, 0.538
7.82, -0.039, -10.123, 0.485
7.83, -0.078, -10.098, 0.569
7.84, -0.039, -10.098, 0.569
7.85, -0.078, -10.105, 0.608
7.86, -0.078, -10.13, 0.524
7.87, -0.078, -10.085, 0.492
7.88, -0.118, -10.085, 0.492
7.89, -0.078, -10.13, 0.524
7.9, -0.078, -10.116, 0.447
7.91, -0.039, -10.091, 0.531
7.92, -0.078, -10.157, 0.679
7.93, -0.039, -10.144, 0.601
7.94, 0.0, -10.144, 0.601
7.95, -0.078, -10.137, 0.563
7.96, -0.078, -10.137, 0.563
7.97, -0.078, -10.13, 0.524
7.98, -0.078, -10.157, 0.679
7.99, -0.078, -10.137, 0.563
8.0, -0.039, -10.13, 0.524
8.01, -0.078, -10.091, 0.531
8.02, -0.078, -10.098, 0.569
8.03, -0.078, -10.091, 0.531
8.04, -0.039, -10.06, 0.576
8.05, -0.039, -10.06, 0.576
8.06, -0.078, -10.0, 0.467
8.07, -0.078, -10.035, 0.66
8.08, -0.078, -10.028, 0.622
8.09, -0.078, -10.091, 0.531
8.1, -0.118, -10.06, 0.576
8.11, -0.118, -10.105, 0.608
8.12, -0.157, -10.078, 0.454
8.13, -0.118, -10.144, 0.601
8.14, -0.118, -10.098, 0.569
8.15, -0.118, -10.105, 0.608
8.16, -0.078, -10.15, 0.64
8.17, -0.118, -10.144, 0.601
8.18, -0.078, -10.119, 0.685
8.19, -0.078, -10.071, 0.415
8.2, -0.039, -10.105, 0.608
8.21, -0.039, -10.112, 0.647
8.22, 0.0, -10.157, 0.679
8.23, 0.0, -10.085, 0.492
8.24, -0.039, -10.112, 0.647
8.25, -0.039, -10.06, 0.576
8.26, -0.078, -10.091, 0.531
8.27, -0.039, -10.091, 0.531
8.28, -0.078, -10.112, 0.647
8.29, -0.039, -10.123, 0.485
8.3, -0.039, -10.137, 0.563
8.31, -0.039, -10.085, 0.492
8.32, -0.078, -10.085, 0.492
8.33, -0.078, -10.137, 0.563
8.34, -0.039, -10.098, 0.569
8.35, -0.039, -10.137, 0.563
8.36, -0.039, -10.105, 0.608
8.37, -0.039, -10.112, 0.647
8.38, -0.078, -10.091, 0.531
8.39, -0.039, -10.105, 0.608
8.4, -0.039, -10.137, 0.563
8.41, -0.039, -10.13, 0.524
8.42, -0.039, -10.105, 0.608
8.43, -0.078, -10.144, 0.601
8.44, -0.078, -10.098, 0.569
8.45, -0.078, -10.182, 0.594
8.46, -0.078, -10.157, 0.679
8.47, -0.078, -10.15, 0.64
8.48, -0.078, -10.105, 0.608
8.49, -0.039, -10.112, 0.647
8.5, -0.039, -10.112, 0.647
8.51, -0.039, -10.137, 0.563
8.52, -0.039, -10.182, 0.594
8.53, 0.0, -10.144, 0.601
8.54, -0.078, -10.098, 0.569
8.55, -0.078, -10.091, 0.531
8.56, -0.118, -10.091, 0.531
8.57, -0.118, -10.085, 0.492
8.58, -0.157, -10.105, 0.608
8.59, -0.157, -10.06, 0.576
8.6, -0.118, -10.105, 0.608
8.61, -0.078, -10.112, 0.647
8.62, -0.039, -10.098, 0.569
8.63, -0.039, -10.091, 0.531
8.64, 0.0, -10.06, 0.576
8.65, -0.039, -10.066, 0.615
8.66, 0.0, -10.053, 0.538
8.67, 0.0, -10.105, 0.608
8.68, 0.0, -10.08, 0.692
8.69, -0.039, -10.105, 0.608
8.7, -0.039, -10.06, 0.576
8.71, 0.0, -10.105, 0.608
8.72, -0.039, -10.164, 0.717
8.73, -0.078, -10.21, 0.749
8.74, -0.078, -10.21, 0.749
8.75, -0.039, -10.137, 0.563
8.76, -0.039, -10.169, 0.517
8.77, -0.039, -10.144, 0.601
8.78, -0.039, -10.105, 0.608
8.79, -0.039, -10.073, 0.654
8.8, 0.0, -10.112, 0.647
8.81, 0.0, -10.112, 0.647
8.82, 0.0, -10.098, 0.569
8.83, 0.0, -10.137, 0.563
8.84, -0.039, -10.137, 0.563
8.85, -0.039, -10.175, 0.556
8.86, -0.039, -10.194, 0.433
8.87, 0.0, -10.164, 0.717
8.88, -0.039, -10.098, 0.569
8.89, -0.039, -10.091, 0.531
8.9, -0.039, -10.144, 0.601
8.91, -0.078, -10.144, 0.601
8.92, -0.078, -10.137, 0.563
8.93, -0.078, -10.137, 0.563
8.94, -0.078, -10.13, 0.524
8.95, -0.078, -10.098, 0.569
8.96, -0.039, -10.098, 0.569
8.97, -0.078, -10.085, 0.492
8.98, -0.078, -10.053, 0.538
8.99, -0.039, -10.06, 0.576
9.0, -0.039, -10.021, 0.583
9.01, -0.039, -10.06, 0.576
9.02, -0.078, -10.06, 0.576
9.03, -0.078, -10.105, 0.608
9.04, -0.078, -10.105, 0.608
9.05, -0.078, -10.091, 0.531
9.06, -0.118, -10.137, 0.563
9.07, -0.118, -10.098, 0.569
9.08, -0.118, -10.112, 0.647
9.09, -0.118, -10.098, 0.569
9.1, -0.078, -10.066, 0.615
9.11, -0.039, -10.06, 0.576
9.12, -0.078, -10.125, 0.724
9.13, -0.118, -10.144, 0.601
9.14, -0.118, -10.137, 0.563
9.15, -0.078, -10.15, 0.64
9.16, -0.039, -10.119, 0.685
9.17, -0.039, -10.119, 0.685
9.18, -0.039, -10.189, 0.633
9.19, -0.039, -10.21, 0.749
9.2, -0.039, -10.144, 0.601
9.21, -0.078, -10.13, 0.524
9.22, -0.078, -10.137, 0.563
9.23, -0.078, -10.144, 0.601
9.24, -0.039, -10.137, 0.563
9.25, -0.039, -10.157, 0.679
9.26, -0.039, -10.098, 0.569
9.27, -0.039, -10.112, 0.647
9.28, -0.039, -10.144, 0.601
9.29, -0.039, -10.119, 0.685
9.3, 0.0, -10.137, 0.563
9.31, -0.039, -10.098, 0.569
9.32, -0.039, -10.105, 0.608
9.33, -0.039, -10.132, 0.763
9.34, -0.039, -10.105, 0.608
9.35, -0.039, -10.13, 0.524
9.36, -0.039, -10.085, 0.492
9.37, -0.039, -10.098, 0.569
9.38, -0.039, -10.091, 0.531
9.39, -0.039, -10.105, 0.608
9.4, -0.078, -10.157, 0.679
9.41, -0.039, -10.182, 0.594
9.42, -0.039, -10.13, 0.524
9.43, -0.039, -10.098, 0.569
9.44, -0.078, -10.098, 0.569
9.45, -0.118, -10.066, 0.615
9.46, -0.078, -10.112, 0.647
9.47, -0.078, -10.112, 0.647
9.48, -0.118, -10.112, 0.647
9.49, -0.078, -10.15, 0.64
9.5, -0.078, -10.119, 0.685
9.51, -0.078, -10.112, 0.647
9.52, -0.039, -10.178, 0.794
9.53, -0.078, -10.112, 0.647
9.54, -0.039, -10.112, 0.647
9.55, -0.039, -10.119, 0.685
9.56, -0.078, -10.119, 0.685
9.57, -0.039, -10.112, 0.647
9.58, 0.0, -10.119, 0.685
9.59, 0.0, -10.098, 0.569
9.6, 0.0, -10.137, 0.563
9.61, 0.039, -10.112, 0.647
9.62, 0.039, -10.098, 0.569
9.63, 0.0, -10.15, 0.64
9.64, 0.0, -10.105, 0.608
9.65, -0.039, -10.087, 0.731
9.66, 0.0, -10.13, 0.524
9.67, 0.0, -10.137, 0.563
9.68, 0.0, -10.13, 0.524
9.69, 0.0, -10.144, 0.601
9.7, 0.0, -10.15, 0.64
9.71, -0.039, -10.112, 0.647
9.72, -0.039, -10.091, 0.531
9.73, -0.039, -10.06, 0.576
9.74, -0.039, -10.105, 0.608
9.75, -0.039, -10.046, 0.499
9.76, 0.0, -10.144, 0.601
9.77, 0.0, -10.098, 0.569
9.78, -0.039, -10.105, 0.608
9.79, 0.039, -10.085, 0.492
9.8, -0.039, -10.139, 0.801
9.81, -0.039, -10.105, 0.608
9.82, 0.0, -10.119, 0.685
9.83, -0.039, -10.137, 0.563
9.84, -0.039, -10.112, 0.647
9.85, -0.039, -10.105, 0.608
9.86, -0.078, -10.105, 0.608
9.87, -0.039, -10.098, 0.569
9.88, -0.039, -10.15, 0.64
9.89, -0.078, -10.144, 0.601
9.9, -0.039, -10.112, 0.647
9.91, -0.078, -10.066, 0.615
9.92, -0.078, -10.08, 0.692
9.93, -0.078, -10.08, 0.692
9.94, -0.078, -10.08, 0.692
9.95, -0.039, -10.105, 0.608
9.96, -0.039, -10.125, 0.724
9.97, -0.039, -10.112, 0.647
9.98, -0.039, -10.15, 0.64
9.99, -0.039, -10.15, 0.64
10.0, -0.039, -10.132, 0.763
10.01, -0.078, -10.171, 0.756
10.02, -0.078, -10.157, 0.679
10.03, -0.078, -10.15, 0.64
10.04, -0.039, -10.13, 0.524
10.05, -0.039, -10.13, 0.524
10.06, -0.118, -10.105, 0.608
10.07, -0.078, -10.105, 0.608
10.08, -0.078, -10.066, 0.615
10.09, -0.039, -10.06, 0.576
10.1, -0.039, -10.066, 0.615
10.11, -0.039, -10.105, 0.608
10.12, -0.039, -10.112, 0.647
10.13, -0.039, -10.098, 0.569
10.14, 0.0, -10.105, 0.608
10.15, 0.0, -10.112, 0.647
10.16, 0.0, -10.06, 0.576
10.17, 0.0, -10.06, 0.576
10.18, 0.0, -10.06, 0.576
10.19, -0.039, -10.028, 0.622
10.2, -0.039, -10.073, 0.654
10.21, -0.039, -10.066, 0.615
10.22, 0.0, -10.098, 0.569
10.23, 0.0, -10.112, 0.647
10.24, 0.0, -10.119, 0.685
10.25, -0.039, -10.112, 0.647
10.26, -0.039, -10.105, 0.608
10.27, 0.0, -10.119, 0.685
10.28, -0.039, -10.105, 0.608
10.29, 0.0, -10.112, 0.647
10.3, 0.0, -10.066, 0.615
10.31, -0.039, -10.125, 0.724
10.32, -0.039, -10.15, 0.64
10.33, -0.039, -10.164, 0.717
10.34, -0.039, -10.105, 0.608
10.35, -0.039, -10.112, 0.647
10.36, -0.039, -10.091, 0.531
10.37, -0.039, -10.15, 0.64
10.38, -0.039, -10.15, 0.64
10.39, -0.039, -10.105, 0.608
10.4, -0.039, -10.073, 0.654
10.41, -0.039, -10.046, 0.499
10.42, -0.039, -10.105, 0.608
10.43, -0.039, -10.073, 0.654
10.44, -0.078, -10.094, 0.769
10.45, -0.078, -10.08, 0.692
10.46, -0.039, -10.073, 0.654
10.47, -0.039, -10.08, 0.692
10.48, -0.039, -10.125, 0.724
10.49, -0.039, -10.119, 0.685
10.5, -0.039, -10.085, 0.492
10.51, 0.0, -10.066, 0.615
10.52, -0.039, -10.119, 0.685
10.53, 0.0, -10.112, 0.647
10.54, 0.0, -10.125, 0.724
10.55, 0.039, -10.073, 0.654
10.56, 0.0, -10.119, 0.685
10.57, 0.039, -10.112, 0.647
10.58, -0.039, -10.098, 0.569
10.59, -0.078, -10.094, 0.769
10.6, 0.0, -10.125, 0.724
10.61, 0.0, -10.119, 0.685
10.62, 0.0, -10.125, 0.724
10.63, 0.0, -10.125, 0.724
10.64, 0.0, -10.073, 0.654
10.65, -0.039, -10.073, 0.654
10.66, -0.039, -10.105, 0.608
10.67, -0.039, -10.066, 0.615
10.68, -0.039, -10.112, 0.647
10.69, -0.039, -10.105, 0.608
10.7, -0.039, -10.112, 0.647
10.71, -0.039, -10.073, 0.654
10.72, -0.039, -10.112, 0.647
10.73, -0.078, -10.098, 0.569
10.74, -0.078, -10.105, 0.608
10.75, -0.039, -10.066, 0.615
10.76, 0.0, -10.06, 0.576
10.77, 0.0, -10.053, 0.538
10.78, 0.0, -10.06, 0.576
10.79, 0.0, -10.073, 0.654
10.8, 0.0, -10.066, 0.615
10.81, 0.0, -10.073, 0.654
10.82, 0.0, -10.035, 0.66
10.83, -0.078, -10.06, 0.576
10.84, -0.078, -10.073, 0.654
10.85, -0.078, -10.119, 0.685
10.86, -0.078, -10.119, 0.685
10.87, -0.078, -10.08, 0.692
10.88, -0.118, -10.112, 0.647
10.89, -0.078, -10.105, 0.608
10.9, -0.078, -10.105, 0.608
10.91, -0.078, -10.132, 0.763
10.92, -0.039, -10.157, 0.679
10.93, -0.039, -10.112, 0.647
10.94, -0.078, -10.125, 0.724
10.95, -0.039, -10.112, 0.647
10.96, 0.0, -10.073, 0.654
10.97, 0.0, -10.119, 0.685
10.98, -0.039, -10.066, 0.615
10.99, 0.039, -10.178, 0.794
11.0, 0.039, -10.15, 0.64
11.01, 0.039, -10.164, 0.717
11.02, 0.039, -10.164, 0.717
11.03, 0.039, -10.15, 0.64
11.04, 0.039, -10.139, 0.801
11.05, 0.0, -10.125, 0.724
11.06, 0.0, -10.144, 0.601
11.07, 0.0, -10.105, 0.608
11.08, 0.0, -10.125, 0.724
11.09, 0.0, -10.125, 0.724
11.1, 0.0, -10.112, 0.647
11.11, -0.039, -10.103, 0.37
11.12, 0.0, -10.119, 0.685
11.13, 0.0, -10.132, 0.763
11.14, 0.039, -10.087, 0.731
11.15, 0.0, -10.125, 0.724
11.16, 0.0, -10.073, 0.654
11.17, 0.039, -10.08, 0.692
11.18, 0.0, -10.119, 0.685
11.19, 0.039, -10.119, 0.685
11.2, 0.039, -10.112, 0.647
11.21, 0.0, -10.112, 0.647
11.22, 0.0, -10.112, 0.647
11.23, -0.039, -10.125, 0.724
11.24, 0.0, -10.073, 0.654
11.25, 0.0, -10.125, 0.724
11.26, 0.0, -10.112, 0.647
11.27, -0.039, -10.073, 0.654
11.28, -0.039, -10.08, 0.692
11.29, 0.0, -10.098, 0.569
11.3, 0.0, -10.112, 0.647
11.31, 0.039, -10.125, 0.724
11.32, 0.039, -10.125, 0.724
11.33, 0.0, -10.139, 0.801
11.34, 0.0, -10.125, 0.724
11.35, 0.0, -10.119, 0.685
11.36, 0.0, -10.1, 0.808
11.37, 0.039, -10.08, 0.692
11.38, 0.0, -10.08, 0.692
11.39, 0.0, -10.132, 0.763
11.4, 0.0, -10.094, 0.769
11.41, 0.0, -10.094, 0.769
11.42, 0.0, -10.125, 0.724
11.43, 0.039, -10.119, 0.685
11.44, 0.039, -10.1, 0.808
11.45, 0.039, -10.08, 0.692
11.46, 0.039, -10.08, 0.692
11.47, 0.039, -10.073, 0.654
11.48, 0.078, -10.087, 0.731
11.49, 0.039, -10.094, 0.769
11.5, 0.039, -10.114, 0.885
11.51, 0.078, -10.094, 0.769
11.52, 0.039, -10.073, 0.654
11.53, 0.078, -10.041, 0.699
11.54, 0.078, -10.08, 0.692
11.55, 0.078, -10.048, 0.738
11.56, 0.078, -10.08, 0.692
11.57, 0.078, -10.087, 0.731
11.58, 0.078, -10.08, 0.692
11.59, 0.078, -10.087, 0.731
11.6, 0.039, -10.08, 0.692
11.61, 0.0, -10.105, 0.608
11.62, 0.0, -10.08, 0.692
11.63, 0.0, -10.1, 0.808
11.64, 0.0, -10.055, 0.776
11.65, 0.0, -10.021, 0.583
11.66, 0.0, -10.125, 0.724
11.67, -0.039, -10.132, 0.763
11.68, -0.039, -10.112, 0.647
11.69, 0.0, -10.203, 0.71
11.7, 0.0, -10.171, 0.756
11.71, 0.0, -10.146, 0.84
11.72, 0.039, -10.125, 0.724
11.73, 0.039, -10.094, 0.769
11.74, 0.078, -10.08, 0.692
11.75, 0.039, -10.055, 0.776
11.76, 0.0, -10.048, 0.738
11.77, 0.0, -10.048, 0.738
11.78, -0.039, -10.055, 0.776
11.79, 0.0, -10.062, 0.815
11.8, 0.0, -10.062, 0.815
11.81, -0.039, -10.087, 0.731
11.82, 0.0, -10.125, 0.724
11.83, 0.039, -10.087, 0.731
11.84, 0.0, -10.125, 0.724
11.85, 0.0, -10.125, 0.724
11.86, 0.0, -10.087, 0.731
11.87, 0.039, -10.087, 0.731
11.88, 0.039, -10.087, 0.731
11.89, 0.039, -10.055, 0.776
11.9, 0.039, -10.107, 0.847
11.91, 0.078, -10.094, 0.769
11.92, 0.078, -10.087, 0.731
11.93, 0.039, -10.094, 0.769
11.94, 0.078, -10.107, 0.847
11.95, 0.039, -10.062, 0.815
11.96, 0.039, -10.055, 0.776
11.97, 0.039, -10.069, 0.854
11.98, 0.078, -10.055, 0.776
11.99, 0.039, -10.055, 0.776
12.0, 0.078, -10.087, 0.731
12.01, 0.039, -10.1, 0.808
12.02, 0.039, -10.132, 0.763
12.03, 0.078, -10.121, 0.924
12.04, 0.078, -10.069, 0.854
12.05, 0.078, -10.087, 0.731
12.06, 0.039, -10.055, 0.776
12.07, 0.039, -10.062, 0.815
12.08, 0.039, -10.1, 0.808
12.09, 0.078, -10.114, 0.885
12.1, 0.039, -10.132, 0.763
12.11, 0.039, -10.1, 0.808
12.12, 0.118, -10.094, 0.769
12.13, 0.039, -10.107, 0.847
12.14, 0.078, -10.094, 0.769
12.15, 0.078, -10.128, 0.963
12.16, 0.039, -10.121, 0.924
12.17, 0.039, -10.114, 0.885
12.18, 0.0, -10.062, 0.815
12.19, 0.039, -10.146, 0.84
12.2, 0.078, -10.153, 0.879
12.21, 0.078, -10.069, 0.854
12.22, 0.078, -10.1, 0.808
12.23, 0.039, -10.062, 0.815
12.24, 0.039, -10.062, 0.815
12.25, 0.039, -10.055, 0.776
12.26, 0.0, -10.075, 0.892
12.27, 0.039, -10.094, 0.769
12.28, 0.078, -10.1, 0.808
12.29, 0.078, -10.153, 0.879
12.3, 0.078, -10.139, 0.801
12.31, 0.078, -10.107, 0.847
12.32, 0.078, -10.173, 0.994
12.33, 0.078, -10.173, 0.994
12.34, 0.078, -10.1, 0.808
12.35, 0.078, -10.114, 0.885
12.36, 0.118, -10.153, 0.879
12.37, 0.118, -10.114, 0.885
12.38, 0.118, -10.107, 0.847
12.39, 0.039, -10.132, 0.763
12.4, 0.078, -10.094, 0.769
12.41, 0.078, -10.114, 0.885
12.42, 0.039, -10.121, 0.924
12.43, 0.039, -10.107, 0.847
12.44, 0.078, -10.089, 0.969
12.45, 0.078, -10.069, 0.854
12.46, 0.118, -10.087, 0.731
12.47, 0.039, -10.107, 0.847
12.48, 0.039, -10.075, 0.892
12.49, 0.039, -10.075, 0.892
12.5, 0.0, -10.062, 0.815
12.51, -0.039, -10.03, 0.86
12.52, 0.0, -10.037, 0.899
12.53, 0.0, -10.082, 0.931
12.54, 0.039, -10.062, 0.815
12.55, 0.078, -10.107, 0.847
12.56, 0.118, -10.107, 0.847
12.57, 0.078, -10.069, 0.854
12.58, 0.078, -10.062, 0.815
12.59, 0.039, -10.069, 0.854
12.6, 0.0, -10.141, 1.04
12.61, 0.039, -10.094, 0.769
12.62, 0.039, -10.107, 0.847
12.63, 0.039, -10.146, 0.84
12.64, 0.039, -10.153, 0.879
12.65, 0.039, -10.114, 0.885
12.66, 0.078, -10.1, 0.808
12.67, 0.039, -10.087, 0.731
12.68, 0.039, -10.087, 0.731
12.69, 0.039, -10.107, 0.847
12.7, 0.039, -10.048, 0.738
12.71, 0.118, -10.048, 0.738
12.72, 0.078, -10.107, 0.847
12.73, 0.078, -10.055, 0.776
12.74, 0.078, -10.055, 0.776
12.75, 0.078, -10.075, 0.892
12.76, 0.118, -10.055, 0.776
12.77, 0.118, -10.055, 0.776
12.78, 0.078, -10.055, 0.776
12.79, 0.039, -10.075, 0.892
12.8, 0.078, -10.114, 0.885
12.81, 0.039, -10.075, 0.892
12.82, 0.039, -10.1, 0.808
12.83, 0.0, -10.069, 0.854
12.84, 0.0, -10.055, 0.776
12.85, 0.039, -10.114, 0.885
12.86, 0.039, -10.114, 0.885
12.87, 0.039, -10.075, 0.892
12.88, 0.078, -10.114, 0.885
12.89, 0.039, -10.114, 0.885
12.9, 0.039, -10.107, 0.847
12.91, 0.039, -10.121, 0.924
12.92, 0.078, -10.114, 0.885
12.93, 0.078, -10.114, 0.885
12.94, 0.078, -10.121, 0.924
12.95, 0.078, -10.114, 0.885
12.96, 0.039, -10.107, 0.847
12.97, 0.078, -10.114, 0.885
12.98, 0.039, -10.128, 0.963
12.99, 0.078, -10.134, 1.001
13.0, 0.078, -10.082, 0.931
13.01, 0.078, -10.082, 0.931
13.02, 0.078, -10.089, 0.969
13.03, 0.078, -10.153, 0.879
13.04, 0.078, -10.121, 0.924
13.05, 0.118, -10.082, 0.931
13.06, 0.118, -10.062, 0.815
13.07, 0.118, -10.062, 0.815
13.08, 0.078, -10.075, 0.892
13.09, 0.118, -10.075, 0.892
13.1, 0.118, -10.141, 1.04
13.11, 0.118, -10.075, 0.892
13.12, 0.118, -10.094, 0.769
13.13, 0.078, -10.096, 1.008
13.14, 0.078, -10.082, 0.931
13.15, 0.118, -10.089, 0.969
13.16, 0.078, -10.089, 0.969
13.17, 0.078, -10.128, 0.963
13.18, 0.039, -10.1, 0.808
13.19, 0.078, -10.062, 0.815
13.2, 0.039, -10.03, 0.86
13.21, 0.078, -10.082, 0.931
13.22, 0.078, -10.075, 0.892
13.23, 0.118, -10.055, 0.776
13.24, 0.078, -10.082, 0.931
13.25, 0.118, -10.044, 0.938
13.26, 0.078, -10.082, 0.931
13.27, 0.118, -10.082, 0.931
13.28, 0.118, -10.069, 0.854
13.29, 0.157, -10.107, 0.847
13.3, 0.157, -10.128, 0.963
13.31, 0.157, -10.121, 0.924
13.32, 0.118, -10.114, 0.885
13.33, 0.118, -10.1, 0.808
13.34, 0.118, -10.075, 0.892
13.35, 0.078, -10.075, 0.892
13.36, 0.118, -10.044, 0.938
13.37, 0.078, -10.044, 0.938
13.38, 0.118, -10.062, 0.815
13.39, 0.157, -10.089, 0.969
13.4, 0.118, -10.037, 0.899
13.41, 0.118, -10.023, 0.822
13.42, 0.118, -10.069, 0.854
13.43, 0.118, -10.037, 0.899
13.44, 0.157, -10.069, 0.854
13.45, 0.196, -10.089, 0.969
13.46, 0.157, -10.082, 0.931
13.47, 0.157, -10.044, 0.938
13.48, 0.157, -10.064, 1.053
13.49, 0.157, -10.141, 1.04
13.5, 0.118, -10.141, 1.04
13.51, 0.078, -10.041, 0.699
13.52, 0.078, -10.121, 0.924
13.53, 0.118, -10.141, 1.04
13.54, 0.118, -10.141, 1.04
13.55, 0.157, -10.089, 0.969
13.56, 0.157, -10.057, 1.015
13.57, 0.157, -10.05, 0.976
13.58, 0.118, -10.05, 0.976
13.59, 0.118, -10.134, 1.001
13.6, 0.157, -10.141, 1.04
13.61, 0.157, -10.128, 0.963
13.62, 0.118, -10.134, 1.001
13.63, 0.157, -10.141, 1.04
13.64, 0.196, -10.121, 0.924
13.65, 0.235, -10.089, 0.969
13.66, 0.157, -10.141, 1.04
13.67, 0.118, -10.134, 1.001
13.68, 0.118, -10.089, 0.969
13.69, 0.118, -10.128, 0.963
13.7, 0.118, -10.037, 0.899
13.71, 0.118, -10.05, 0.976
13.72, 0.157, -10.05, 0.976
13.73, 0.157, -10.05, 0.976
13.74, 0.157, -10.082, 0.931
13.75, 0.157, -10.089, 0.969
13.76, 0.157, -10.082, 0.931
13.77, 0.157, -10.103, 1.047
13.78, 0.118, -10.048, 0.738
13.79, 0.078, -10.089, 0.969
13.8, 0.078, -10.071, 1.092
13.81, 0.039, -10.044, 0.938
13.82, 0.039, -10.096, 1.008
13.83, 0.078, -10.044, 0.938
13.84, 0.078, -10.103, 1.047
13.85, 0.078, -10.05, 0.976
13.86, 0.118, -10.057, 1.015
13.87, 0.118, -10.096, 1.008
13.88, 0.118, -10.089, 0.969
13.89, 0.078, -10.05, 0.976
13.9, 0.078, -10.05, 0.976
13.91, 0.118, -10.044, 0.938
13.92, 0.078, -10.103, 1.047
13.93, 0.118, -10.096, 1.008
13.94, 0.157, -10.096, 1.008
13.95, 0.157, -10.082, 0.931
13.96, 0.157, -10.05, 0.976
13.97, 0.157, -10.109, 1.085
13.98, 0.118, -10.155, 1.117
13.99, 0.118, -10.134, 1.001
14.0, 0.118, -10.141, 1.04
14.01, 0.118, -10.109, 1.085
14.02, 0.118, -10.064, 1.053
14.03, 0.118, -10.05, 0.976
14.04, 0.118, -10.05, 0.976
14.05, 0.235, -10.012, 0.983
14.06, 0.196, -10.037, 0.899
14.07, 0.196, -10.064, 1.053
14.08, 0.196, -10.103, 1.047
14.09, 0.196, -9.998, 0.906
14.1, 0.118, -10.057, 1.015
14.11, 0.157, -10.103, 1.047
14.12, 0.118, -10.096, 1.008
14.13, 0.118, -10.075, 0.892
14.14, 0.118, -10.071, 1.092
14.15, 0.118, -10.096, 1.008
14.16, 0.157, -10.057, 1.015
14.17, 0.196, -10.116, 1.124
14.18, 0.157, -10.109, 1.085
14.19, 0.118, -10.044, 0.938
14.2, 0.157, -10.064, 1.053
14.21, 0.157, -10.064, 1.053
14.22, 0.157, -10.037, 0.899
14.23, 0.118, -10.057, 1.015
14.24, 0.118, -10.103, 1.047
14.25, 0.118, -10.103, 1.047
14.26, 0.118, -10.134, 1.001
14.27, 0.157, -10.148, 1.079
14.28, 0.157, -10.109, 1.085
14.29, 0.157, -10.141, 1.04
14.3, 0.157, -10.089, 0.969
14.31, 0.157, -10.109, 1.085
14.32, 0.118, -10.096, 1.008
14.33, 0.078, -10.109, 1.085
14.34, 0.078, -10.064, 1.053
14.35, 0.078, -10.075, 0.892
14.36, 0.118, -10.116, 1.124
14.37, 0.157, -10.109, 1.085
14.38, 0.118, -10.064, 1.053
14.39, 0.157, -10.071, 1.092
14.4, 0.157, -10.064, 1.053
14.41, 0.157, -10.071, 1.092
14.42, 0.118, -10.096, 1.008
14.43, 0.039, -10.141, 1.04
14.44, 0.078, -10.155, 1.117
14.45, 0.078, -10.089, 0.969
14.46, 0.118, -10.123, 1.163
14.47, 0.118, -10.071, 1.092
14.48, 0.118, -10.057, 1.015
14.49, 0.118, -10.071, 1.092
14.5, 0.118, -10.116, 1.124
14.51, 0.078, -10.116, 1.124
14.52, 0.078, -10.064, 1.053
14.53, 0.118, -10.078, 1.131
14.54, 0.157, -10.103, 1.047
14.55, 0.235, -10.103, 1.047
14.56, 0.196, -10.039, 1.138
14.57, 0.235, -10.025, 1.06
14.58, 0.275, -10.019, 1.022
14.59, 0.196, -10.032, 1.099
14.6, 0.157, -10.025, 1.06
14.61, 0.157, -10.064, 1.053
14.62, 0.118, -10.064, 1.053
14.63, 0.118, -10.071, 1.092
14.64, 0.118, -10.05, 0.976
14.65, 0.118, -10.109, 1.085
14.66, 0.118, -10.064, 1.053
14.67, 0.078, -10.071, 1.092
14.68, 0.078, -10.078, 1.131
14.69, 0.039, -10.096, 1.008
14.7, 0.078, -10.123, 1.163
14.71, 0.118, -10.116, 1.124
14.72, 0.118, -10.064, 1.053
14.73, 0.118, -10.103, 1.047
14.74, 0.118, -10.096, 1.008
14.75, 0.157, -10.109, 1.085
14.76, 0.118, -10.044, 0.938
14.77, 0.078, -10.064, 1.053
14.78, 0.078, -10.071, 1.092
14.79, 0.039, -10.071, 1.092
14.8, 0.039, -10.019, 1.022
14.81, 0.078, -10.025, 1.06
14.82, 0.039, -10.071, 1.092
14.83, 0.039, -10.071, 1.092
14.84, 0.078, -10.032, 1.099
14.85, 0.039, -10.064, 1.053
14.86, 0.118, -10.025, 1.06
14.87, 0.078, -10.019, 1.022
14.88, 0.078, -10.091, 1.208
14.89, 0.039, -10.071, 1.092
14.9, 0.039, -10.096, 1.008
14.91, 0.078, -10.064, 1.053
14.92, 0.039, -10.064, 1.053
14.93, 0.078, -10.064, 1.053
14.94, 0.078, -10.084, 1.169
14.95, 0.118, -10.084, 1.169
14.96, 0.078, -10.109, 1.085
14.97, 0.039, -10.116, 1.124
14.98, 0.078, -10.109, 1.085
14.99, 0.118, -10.096, 1.008
15.0, 0.118, -10.116, 1.124
15.01, 0.118, -10.109, 1.085
15.02, 0.118, -10.116, 1.124
15.03, 0.118, -10.109, 1.085
15.04, 0.118, -10.123, 1.163
15.05, 0.078, -10.064, 1.053
15.06, 0.078, -10.078, 1.131
15.07, 0.078, -10.109, 1.085
15.08, 0.078, -10.123, 1.163
15.09, 0.078, -10.109, 1.085
15.1, 0.078, -10.096, 1.008
15.11, 0.078, -10.071, 1.092
15.12, 0.078, -10.071, 1.092
15.13, 0.039, -10.078, 1.131
15.14, 0.078, -10.071, 1.092
15.15, 0.078, -10.109, 1.085
15.16, 0.078, -10.064, 1.053
15.17, 0.078, -10.084, 1.169
15.18, 0.039, -10.109, 1.085
15.19, 0.039, -10.078, 1.131
15.2, 0.078, -10.084, 1.169
15.21, 0.078, -10.071, 1.092
15.22, 0.078, -10.064, 1.053
15.23, 0.078, -10.025, 1.06
15.24, 0.078, -10.0, 1.144
15.25, 0.078, -10.032, 1.099
15.26, 0.078, -10.078, 1.131
15.27, 0.078, -10.019, 1.022
15.28, 0.078, -10.064, 1.053
15.29, 0.118, -10.053, 1.215
15.3, 0.118, -10.019, 1.022
15.31, 0.078, -10.039, 1.138
15.32, 0.078, -10.091, 1.208
15.33, 0.078, -10.084, 1.169
15.34, 0.078, -10.084, 1.169
15.35, 0.078, -10.053, 1.215
15.36, 0.078, -10.053, 1.215
15.37, 0.039, -10.046, 1.176
15.38, 0.118, -10.032, 1.099
15.39, 0.157, -10.025, 1.06
15.4, 0.157, -10.091, 1.208
15.41, 0.157, -10.078, 1.131
15.42, 0.157, -10.091, 1.208
15.43, 0.157, -10.084, 1.169
15.44, 0.157, -10.13, 1.201
15.45, 0.078, -10.13, 1.201
15.46, 0.118, -10.123, 1.163
15.47, 0.118, -10.116, 1.124
15.48, 0.118, -10.123, 1.163
15.49, 0.078, -10.098, 1.247
15.5, 0.078, -10.084, 1.169
15.51, 0.078, -10.13, 1.201
15.52, 0.039, -10.091, 1.208
15.53, 0.039, -10.021, 1.26
15.54, 0.078, -10.053, 1.215
15.55, 0.118, -10.091, 1.208
15.56, 0.118, -10.123, 1.163
15.57, 0.118, -10.078, 1.131
15.58, 0.078, -10.084, 1.169
15.59, 0.118, -10.064, 1.053
15.6, 0.078, -10.091, 1.208
15.61, 0.078, -10.014, 1.222
15.62, 0.118, -10.007, 1.183
15.63, 0.078, -10.046, 1.176
15.64, 0.118, -10.053, 1.215
15.65, 0.118, -10.039, 1.138
15.66, 0.118, -10.125, 1.401
15.67, 0.078, -10.053, 1.215
15.68, 0.078, -10.078, 1.131
15.69, 0.078, -10.059, 1.253
15.7, 0.118, -10.098, 1.247
15.71, 0.078, -10.098, 1.247
15.72, 0.078, -10.098, 1.247
15.73, 0.078, -10.084, 1.169
15.74, 0.118, -10.098, 1.247
15.75, 0.078, -10.091, 1.208
15.76, 0.118, -10.078, 1.131
15.77, 0.078, -10.123, 1.163
15.78, 0.039, -10.078, 1.131
15.79, 0.078, -10.098, 1.247
15.8, 0.078, -10.078, 1.131
15.81, 0.039, -10.098, 1.247
15.82, 0.078, -10.073, 1.331
15.83, 0.078, -10.066, 1.292
15.84, 0.078, -10.039, 1.138
15.85, 0.078, -10.039, 1.138
15.86, 0.078, -10.053, 1.215
15.87, 0.078, -10.059, 1.253
15.88, 0.078, -10.014, 1.222
15.89, 0.078, -10.046, 1.176
15.9, 0.039, -10.053, 1.215
15.91, 0.039, -10.007, 1.183
15.92, 0.039, -10.046, 1.176
15.93, 0.039, -10.091, 1.208
15.94, 0.039, -10.078, 1.131
15.95, 0.118, -10.084, 1.169
15.96, 0.078, -10.078, 1.131
15.97, 0.078, -10.091, 1.208
15.98, 0.039, -10.091, 1.208
15.99, 0.039, -10.091, 1.208
16.0, 0.078, -10.091, 1.208
16.01, 0.078, -10.053, 1.215
16.02, 0.118, -10.084, 1.169
16.03, 0.118, -10.084, 1.169
16.04, 0.118, -10.046, 1.176
16.05, 0.039, -10.053, 1.215
16.06, 0.039, -10.059, 1.253
16.07, 0.039, -10.041, 1.376
16.08, 0.039, -10.059, 1.253
16.09, 0.039, -10.059, 1.253
16.1, 0.078, -10.084, 1.169
16.11, 0.078, -10.098, 1.247
16.12, 0.078, -10.039, 1.138
16.13, 0.078, -10.084, 1.169
16.14, 0.039, -10.091, 1.208
16.15, 0.078, -10.105, 1.285
16.16, 0.039, -10.084, 1.169
16.17, 0.039, -10.066, 1.292
16.18, 0.039, -10.053, 1.215
16.19, 0.078, -10.053, 1.215
16.2, 0.118, -10.059, 1.253
16.21, 0.118, -10.105, 1.285
16.22, 0.078, -10.078, 1.131
16.23, 0.118, -10.059, 1.253
16.24, 0.078, -10.046, 1.176
16.25, 0.118, -10.116, 1.124
16.26, 0.039, -10.098, 1.247
16.27, 0.039, -10.084, 1.169
16.28, 0.039, -10.105, 1.285
16.29, 0.078, -10.053, 1.215
16.3, 0.039, -10.053, 1.215
16.31, 0.039, -10.053, 1.215
16.32, 0.0, -10.059, 1.253
16.33, 0.039, -10.014, 1.222
16.34, 0.0, -10.014, 1.222
16.35, 0.118, -10.012, 0.983
16.36, 0.118, -10.039, 1.138
16.37, 0.078, -10.025, 1.06
16.38, 0.078, -10.078, 1.131
16.39, 0.078, -10.066, 1.292
16.4, 0.118, -10.059, 1.253
16.41, 0.118, -10.032, 1.099
16.42, 0.118, -10.112, 1.324
16.43, 0.118, -10.046, 1.176
16.44, 0.078, -10.021, 1.26
16.45, 0.118, -10.059, 1.253
16.46, 0.078, -10.014, 1.222
16.47, 0.078, -10.039, 1.138
16.48, 0.078, -10.05, 0.976
16.49, 0.157, -10.012, 0.983
16.5, 0.157, -10.078, 1.131
16.51, 0.196, -10.084, 1.169
16.52, 0.157, -10.021, 1.26
16.53, 0.157, -10.007, 1.183
16.54, 0.157, -10.046, 1.176
16.55, 0.118, -10.039, 1.138
16.56, 0.078, -10.091, 1.208
16.57, 0.118, -10.078, 1.131
16.58, 0.078, -10.078, 1.131
16.59, 0.078, -10.084, 1.169
16.6, 0.157, -10.046, 1.176
16.61, 0.157, -10.066, 1.292
16.62, 0.118, -10.053, 1.215
16.63, 0.118, -10.084, 1.169
16.64, 0.118, -10.039, 1.138
16.65, 0.157, -10.039, 1.138
16.66, 0.157, -10.053, 1.215
16.67, 0.078, -10.046, 1.176
16.68, 0.078, -10.0, 1.144
16.69, 0.118, -10.0, 1.144
16.7, 0.078, -10.014, 1.222
16.71, 0.078, -10.046, 1.176
16.72, 0.039, -10.046, 1.176
16.73, 0.039, -10.084, 1.169
16.74, 0.078, -10.066, 1.292
16.75, 0.039, -10.053, 1.215
16.76, 0.039, -10.007, 1.183
16.77, 0.039, -10.059, 1.253
16.78, 0.078, -10.039, 1.138
16.79, 0.118, -10.046, 1.176
16.8, 0.118, -10.066, 1.292
16.81, 0.118, -10.091, 1.208
16.82, 0.118, -10.046, 1.176
16.83, 0.118, -10.105, 1.285
16.84, 0.118, -10.059, 1.253
16.85, 0.157, -10.059, 1.253
16.86, 0.157, -10.091, 1.208
16.87, 0.118, -10.123, 1.163
16.88, 0.157, -10.112, 1.324
16.89, 0.157, -10.098, 1.247
16.9, 0.157, -10.073, 1.331
16.91, 0.157, -10.059, 1.253
16.92, 0.157, -10.112, 1.324
16.93, 0.118, -10.098, 1.247
16.94, 0.157, -10.105, 1.285
16.95, 0.118, -10.066, 1.292
16.96, 0.078, -10.091, 1.208
16.97, 0.078, -10.066, 1.292
16.98, 0.118, -10.073, 1.331
16.99, 0.118, -10.091, 1.208
17.0, 0.157, -10.046, 1.176
17.01, 0.157, -10.08, 1.369
17.02, 0.118, -10.0, 1.144
17.03, 0.078, -10.0, 1.144
17.04, 0.078, -10.059, 1.253
17.05, 0.078, -10.007, 1.183
17.06, 0.078, -10.014, 1.222
17.07, 0.118, -10.021, 1.26
17.08, 0.118, -10.021, 1.26
17.09, 0.078, -10.034, 1.338
17.1, 0.118, -9.975, 1.228
17.11, 0.157, -10.014, 1.222
17.12, 0.118, -10.021, 1.26
17.13, 0.157, -10.098, 1.247
17.14, 0.157, -10.098, 1.247
17.15, 0.196, -10.039, 1.138
17.16, 0.235, -10.048, 1.415
17.17, 0.196, -10.112, 1.324
17.18, 0.235, -10.1, 1.485
17.19, 0.157, -10.073, 1.331
17.2, 0.196, -10.105, 1.285
17.21, 0.196, -10.144, 1.278
17.22, 0.196, -10.105, 1.285
17.23, 0.157, -10.112, 1.324
17.24, 0.157, -10.059, 1.253
17.25, 0.157, -10.034, 1.338
17.26, 0.196, -10.034, 1.338
17.27, 0.196, -10.066, 1.292
17.28, 0.235, -10.041, 1.376
17.29, 0.196, -10.028, 1.299
17.3, 0.196, -10.014, 1.222
17.31, 0.196, -10.0, 1.144
17.32, 0.157, -10.039, 1.138
17.33, 0.196, -10.014, 1.222
17.34, 0.235, -10.066, 1.292
17.35, 0.196, -10.021, 1.26
17.36, 0.196, -10.021, 1.26
17.37, 0.196, -9.982, 1.267
17.38, 0.196, -10.007, 1.183
17.39, 0.235, -10.066, 1.292
17.4, 0.196, -10.007, 1.183
17.41, 0.196, -10.021, 1.26
17.42, 0.157, -10.007, 1.183
17.43, 0.157, -10.066, 1.292
17.44, 0.157, -10.066, 1.292
17.45, 0.118, -10.034, 1.338
17.46, 0.118, -10.073, 1.331
17.47, 0.078, -10.014, 1.222
17.48, 0.078, -10.021, 1.26
17.49, 0.039, -10.021, 1.26
17.5, 0.078, -10.059, 1.253
17.51, 0.078, -10.098, 1.247
17.52, 0.078, -10.098, 1.247
17.53, 0.078, -10.059, 1.253
17.54, 0.078, -10.084, 1.169
17.55, 0.157, -10.078, 1.131
17.56, 0.118, -10.137, 1.24
17.57, 0.118, -10.098, 1.247
17.58, 0.118, -10.059, 1.253
17.59, 0.118, -10.084, 1.169
17.6, 0.118, -10.105, 1.285
17.61, 0.118, -10.066, 1.292
17.62, 0.157, -10.053, 1.215
17.63, 0.118, -10.053, 1.215
17.64, 0.078, -10.059, 1.253
17.65, 0.078, -10.059, 1.253
17.66, 0.078, -10.021, 1.26
17.67, 0.118, -10.007, 1.183
17.68, 0.078, -10.021, 1.26
17.69, 0.118, -10.028, 1.299
17.7, 0.118, -10.048, 1.415
17.71, 0.118, -9.989, 1.306
17.72, 0.118, -9.975, 1.228
17.73, 0.118, -10.014, 1.222
17.74, 0.078, -10.059, 1.253
17.75, 0.118, -10.073, 1.331
17.76, 0.157, -10.021, 1.26
17.77, 0.157, -10.073, 1.331
17.78, 0.118, -10.098, 1.247
17.79, 0.157, -10.112, 1.324
17.8, 0.157, -10.112, 1.324
17.81, 0.157, -10.157, 1.356
17.82, 0.157, -10.116, 1.124
17.83, 0.157, -10.105, 1.285
17.84, 0.157, -10.105, 1.285
17.85, 0.196, -10.119, 1.363
17.86, 0.196, -10.073, 1.331
17.87, 0.157, -10.066, 1.292
17.88, 0.118, -10.059, 1.253
17.89, 0.157, -10.059, 1.253
17.9, 0.118, -10.046, 1.176
17.91, 0.157, -10.014, 1.222
17.92, 0.157, -10.034, 1.338
17.93, 0.157, -10.034, 1.338
17.94, 0.196, -10.059, 1.253
17.95, 0.196, -10.059, 1.253
17.96, 0.196, -10.059, 1.253
17.97, 0.196, -10.046, 1.176
17.98, 0.157, -10.059, 1.253
17.99, 0.157, -9.962, 1.151
18.0, 0.118, -10.028, 1.299
18.01, 0.118, -9.969, 1.19
18.02, 0.157, -10.014, 1.222
18.03, 0.118, -10.021, 1.26
18.04, 0.118, -10.014, 1.222
18.05, 0.118, -10.014, 1.222
18.06, 0.078, -10.066, 1.292
18.07, 0.039, -10.059, 1.253
18.08, 0.039, -10.105, 1.285
18.09, 0.039, -10.112, 1.324
18.1, 0.039, -10.091, 1.208
18.11, 0.078, -10.073, 1.331
18.12, 0.078, -10.105, 1.285
18.13, 0.078, -10.105, 1.285
18.14, 0.078, -10.066, 1.292
18.15, 0.118, -10.059, 1.253
18.16, 0.118, -10.066, 1.292
18.17, 0.118, -10.073, 1.331
18.18, 0.118, -10.105, 1.285
18.19, 0.118, -10.098, 1.247
18.2, 0.118, -10.15, 1.317
18.21, 0.118, -10.08, 1.369
18.22, 0.118, -10.112, 1.324
18.23, 0.118, -10.057, 1.015
18.24, 0.118, -10.112, 1.324
18.25, 0.118, -10.091, 1.208
18.26, 0.118, -10.098, 1.247
18.27, 0.118, -10.098, 1.247
18.28, 0.118, -10.08, 1.369
18.29, 0.078, -10.028, 1.299
18.3, 0.078, -10.021, 1.26
18.31, 0.078, -10.039, 1.138
18.32, 0.118, -10.007, 1.183
18.33, 0.078, -10.0, 1.144
18.34, 0.118, -9.975, 1.228
18.35, 0.078, -9.989, 1.306
18.36, 0.118, -10.08, 1.369
18.37, 0.078, -10.021, 1.26
18.38, 0.078, -10.034, 1.338
18.39, 0.078, -10.021, 1.26
18.4, 0.078, -10.059, 1.253
18.41, 0.078, -10.112, 1.324
18.42, 0.039, -10.119, 1.363
18.43, 0.118, -10.08, 1.369
18.44, 0.118, -10.119, 1.363
18.45, 0.118, -10.112, 1.324
18.46, 0.157, -10.119, 1.363
18.47, 0.157, -10.105, 1.285
18.48, 0.118, -10.08, 1.369
18.49, 0.078, -10.08, 1.369
18.5, 0.118, -10.053, 1.215
18.51, 0.078, -10.066, 1.292
18.52, 0.078, -10.041, 1.376
18.53, 0.078, -10.041, 1.376
18.54, 0.078, -10.034, 1.338
18.55, 0.078, -10.028, 1.299
18.56, 0.118, -10.034, 1.338
18.57, 0.118, -10.014, 1.222
18.58, 0.078, -10.0, 1.144
18.59, 0.078, -10.014, 1.222
18.6, 0.039, -10.066, 1.292
18.61, 0.118, -10.003, 1.383
18.62, 0.118, -10.034, 1.338
18.63, 0.118, -10.059, 1.253
18.64, 0.118, -10.073, 1.331
18.65, 0.078, -10.066, 1.292
18.66, 0.078, -10.073, 1.331
18.67, 0.078, -10.014, 1.222
18.68, 0.039, -10.073, 1.331
18.69, 0.078, -10.059, 1.253
18.7, 0.078, -10.028, 1.299
18.71, 0.078, -10.059, 1.253
18.72, 0.039, -10.066, 1.292
18.73, 0.078, -10.059, 1.253
18.74, 0.078, -10.059, 1.253
18.75, 0.118, -10.041, 1.376
18.76, 0.118, -10.059, 1.253
18.77, 0.118, -10.007, 1.183
18.78, 0.118, -10.059, 1.253
18.79, 0.118, -10.112, 1.324
18.8, 0.118, -10.066, 1.292
18.81, 0.118, -10.053, 1.215
18.82, 0.078, -10.053, 1.215
18.83, 0.039, -10.112, 1.324
18.84, 0.078, -10.066, 1.292
18.85, 0.078, -10.034, 1.338
18.86, 0.078, -9.975, 1.228
18.87, 0.118, -10.021, 1.26
18.88, 0.118, -10.007, 1.183
18.89, 0.118, -10.007, 1.183
18.9, 0.078, -10.053, 1.215
18.91, 0.078, -10.066, 1.292
18.92, 0.078, -10.014, 1.222
18.93, 0.039, -10.046, 1.176
18.94, 0.039, -10.053, 1.215
18.95, 0.039, -10.066, 1.292
18.96, 0.039, -10.073, 1.331
18.97, 0.078, -10.066, 1.292
18.98, 0.078, -10.073, 1.331
18.99, 0.039, -10.053, 1.215
19.0, 0.078, -10.053, 1.215
19.01, 0.078, -10.119, 1.363
19.02, 0.078, -10.059, 1.253
19.03, 0.078, -10.0, 1.144
19.04, 0.157, -10.014, 1.222
19.05, 0.118, -10.08, 1.369
19.06, 0.118, -10.073, 1.331
19.07, 0.157, -10.053, 1.215
19.08, 0.157, -10.059, 1.253
19.09, 0.157, -10.066, 1.292
19.1, 0.118, -10.091, 1.208
19.11, 0.078, -10.066, 1.292
19.12, 0.078, -10.066, 1.292
19.13, 0.078, -10.098, 1.247
19.14, 0.078, -10.105, 1.285
19.15, 0.118, -10.107, 1.524
19.16, 0.118, -10.028, 1.299
19.17, 0.118, -10.091, 1.208
19.18, 0.118, -10.073, 1.331
19.19, 0.118, -10.021, 1.26
19.2, 0.078, -9.982, 1.267
19.21, 0.118, -10.046, 1.176
19.22, 0.118, -10.066, 1.292
19.23, 0.078, -10.066, 1.292
19.24, 0.118, -10.059, 1.253
19.25, 0.118, -10.112, 1.324
19.26, 0.078, -10.105, 1.285
19.27, 0.039, -10.073, 1.331
19.28, 0.039, -10.066, 1.292
19.29, 0.078, -10.073, 1.331
19.3, 0.118, -10.014, 1.222
19.31, 0.118, -10.059, 1.253
19.32, 0.078, -10.073, 1.331
19.33, 0.118, -10.053, 1.215
19.34, 0.118, -10.066, 1.292
19.35, 0.118, -10.053, 1.215
19.36, 0.118, -10.059, 1.253
19.37, 0.039, -10.046, 1.176
19.38, 0.078, -10.059, 1.253
19.39, 0.078, -10.053, 1.215
19.4, 0.078, -10.039, 1.138
19.41, 0.078, -10.119, 1.363
19.42, 0.078, -10.105, 1.285
19.43, 0.078, -10.066, 1.292
19.44, 0.078, -10.073, 1.331
19.45, 0.078, -10.066, 1.292
19.46, 0.078, -10.028, 1.299
19.47, 0.039, -10.028, 1.299
19.48, 0.078, -10.059, 1.253
19.49, 0.039, -10.066, 1.292
19.5, 0.078, -10.059, 1.253
19.51, 0.078, -10.073, 1.331
19.52, 0.078, -10.059, 1.253
19.53, 0.078, -10.105, 1.285
19.54, 0.078, -10.066, 1.292
19.55, 0.118, -10.014, 1.222
19.56, 0.118, -10.073, 1.331
19.57, 0.118, -10.059, 1.253
19.58, 0.118, -10.059, 1.253
19.59, 0.078, -10.073, 1.331
19.6, 0.118, -10.091, 1.208
19.61, 0.118, -10.078, 1.131
19.62, 0.118, -10.125, 1.401
19.63, 0.157, -10.059, 1.253
19.64, 0.118, -10.021, 1.26
19.65, 0.157, -9.969, 1.19
19.66, 0.118, -9.969, 1.19
19.67, 0.078, -10.028, 1.299
19.68, 0.078, -10.073, 1.331
19.69, 0.078, -10.028, 1.299
19.7, 0.078, -10.073, 1.331
19.71, 0.078, -10.073, 1.331
19.72, 0.078, -10.053, 1.215
19.73, 0.039, -10.053, 1.215
19.74, 0.078, -10.046, 1.176
19.75, 0.078, -10.028, 1.299
19.76, 0.118, -10.014, 1.222
19.77, 0.078, -10.084, 1.169
19.78, 0.118, -10.084, 1.169
19.79, 0.157, -10.073, 1.331
19.8, 0.118, -10.08, 1.369
19.81, 0.118, -10.084, 1.169
19.82, 0.118, -10.039, 1.138
19.83, 0.078, -10.098, 1.247
19.84, 0.078, -10.059, 1.253
19.85, 0.039, -10.059, 1.253
19.86, 0.078, -10.053, 1.215
19.87, 0.078, -10.046, 1.176
19.88, 0.078, -10.007, 1.183
19.89, 0.039, -10.098, 1.247
19.9, 0.078, -10.091, 1.208
19.91, 0.078, -10.046, 1.176
19.92, 0.078, -10.014, 1.222
19.93, 0.118, -10.046, 1.176
19.94, 0.118, -10.098, 1.247
19.95, 0.118, -10.098, 1.247
19.96, 0.118, -10.112, 1.324
19.97, 0.118, -10.112, 1.324
19.98, 0.118, -10.053, 1.215
19.99, 0.118, -10.059, 1.253
20.0, 0.078, -10.066, 1.292
20.01, 0.078, -10.059, 1.253
20.02, 0.078, -10.084, 1.169
20.03, 0.039, -10.046, 1.176
20.04, 0.039, -10.066, 1.292
20.05, 0.078, -10.066, 1.292
20.06, 0.118, -10.007, 1.183
20.07, 0.118, -10.073, 1.331
20.08, 0.118, -10.021, 1.26
20.09, 0.118, -10.039, 1.138
20.1, 0.078, -10.053, 1.215
20.11, 0.039, -10.091, 1.208
20.12, 0.039, -10.091, 1.208
20.13, 0.039, -10.053, 1.215
20.14, 0.078, -10.123, 1.163
20.15, 0.078, -10.091, 1.208
20.16, 0.078, -10.098, 1.247
20.17, 0.078, -10.091, 1.208
20.18, 0.039, -10.053, 1.215
20.19, 0.078, -10.066, 1.292
20.2, 0.039, -10.112, 1.324
20.21, 0.078, -10.046, 1.176
20.22, 0.078, -9.987, 1.067
20.23, 0.078, -10.014, 1.222
20.24, 0.078, -10.014, 1.222
20.25, 0.078, -10.0, 1.144
20.26, 0.039, -10.0, 1.144
20.27, 0.039, -10.014, 1.222
20.28, 0.0, -10.021, 1.26
20.29, 0.0, -10.046, 1.176
20.3, 0.039, -10.098, 1.247
20.31, 0.0, -10.053, 1.215
20.32, 0.039, -10.059, 1.253
20.33, 0.039, -10.039, 1.138
20.34, 0.039, -10.053, 1.215
20.35, 0.039, -10.046, 1.176
20.36, 0.039, -10.087, 1.408
20.37, 0.078, -10.087, 1.408
20.38, 0.039, -10.053, 1.215
20.39, 0.039, -10.007, 1.183
20.4, 0.078, -9.969, 1.19
20.41, 0.039, -10.046, 1.176
20.42, 0.078, -10.046, 1.176
20.43, 0.039, -10.105, 1.285
20.44, 0.078, -10.091, 1.208
20.45, 0.039, -10.119, 1.363
20.46, 0.039, -10.137, 1.24
20.47, 0.0, -10.098, 1.247
20.48, 0.039, -10.091, 1.208
20.49, 0.078, -10.053, 1.215
20.5, 0.078, -10.098, 1.247
20.51, 0.039, -10.098, 1.247
20.52, 0.157, -10.053, 1.215
20.53, 0.078, -10.105, 1.285
20.54, 0.078, -10.084, 1.169
20.55, 0.039, -10.091, 1.208
20.56, 0.039, -10.091, 1.208
20.57, 0.078, -10.046, 1.176
20.58, 0.078, -10.091, 1.208
20.59, 0.039, -10.032, 1.099
20.6, 0.0, -10.078, 1.131
20.61, 0.039, -10.078, 1.131
20.62, 0.039, -10.046, 1.176
20.63, 0.039, -10.084, 1.169
20.64, 0.0, -10.039, 1.138
20.65, 0.0, -10.039, 1.138
20.66, 0.0, -10.084, 1.169
20.67, 0.039, -10.078, 1.131
20.68, 0.039, -10.032, 1.099
20.69, 0.078, -10.019, 1.022
20.7, 0.039, -10.039, 1.138
20.71, 0.078, -10.053, 1.215
20.72, 0.039, -10.032, 1.099
20.73, 0.118, -10.0, 1.144
20.74, 0.039, -10.066, 1.292
20.75, 0.039, -10.105, 1.285
20.76, 0.039, -10.137, 1.24
20.77, 0.0, -10.091, 1.208
20.78, 0.039, -10.091, 1.208
20.79, 0.0, -10.084, 1.169
20.8, 0.0, -10.084, 1.169
20.81, 0.0, -10.053, 1.215
20.82, 0.0, -10.039, 1.138
20.83, 0.039, -10.053, 1.215
20.84, 0.039, -10.098, 1.247
20.85, 0.039, -10.084, 1.169
20.86, 0.039, -10.046, 1.176
20.87, 0.039, -10.007, 1.183
20.88, 0.078, -10.021, 1.26
20.89, 0.039, -10.053, 1.215
20.9, 0.078, -10.116, 1.124
20.91, 0.039, -10.091, 1.208
20.92, 0.078, -10.123, 1.163
20.93, 0.039, -10.137, 1.24
20.94, 0.039, -10.098, 1.247
20.95, -0.039, -10.059, 1.253
20.96, 0.0, -10.039, 1.138
20.97, 0.0, -10.046, 1.176
20.98, 0.0, -10.046, 1.176
20.99, 0.0, -10.066, 1.292
21.0, 0.039, -10.098, 1.247
21.01, 0.039, -10.046, 1.176
21.02, 0.0, -10.059, 1.253
21.03, 0.039, -10.053, 1.215
21.04, 0.039, -10.053, 1.215
21.05, 0.039, -10.0, 1.144
21.06, 0.039, -10.039, 1.138
21.07, 0.039, -10.084, 1.169
21.08, 0.039, -10.078, 1.131
21.09, 0.0, -10.091, 1.208
21.1, 0.0, -10.084, 1.169
21.11, 0.0, -10.084, 1.169
21.12, -0.039, -10.091, 1.208
21.13, 0.039, -10.071, 1.092
21.14, 0.039, -10.123, 1.163
21.15, 0.078, -10.071, 1.092
21.16, 0.039, -10.071, 1.092
21.17, 0.039, -10.078, 1.131
21.18, 0.0, -10.053, 1.215
21.19, 0.0, -10.046, 1.176
21.2, 0.0, -10.019, 1.022
21.21, -0.039, -10.025, 1.06
21.22, -0.039, -10.039, 1.138
21.23, -0.039, -10.071, 1.092
21.24, -0.039, -10.071, 1.092
21.25, -0.039, -10.064, 1.053
21.26, -0.039, -10.064, 1.053
21.27, -0.039, -10.071, 1.092
21.28, -0.078, -10.032, 1.099
21.29, -0.039, -10.019, 1.022
21.3, -0.039, -10.039, 1.138
21.31, -0.039, -10.078, 1.131
21.32, -0.039, -10.078, 1.131
21.33, -0.078, -10.078, 1.131
21.34, -0.039, -10.071, 1.092
21.35, 0.0, -10.116, 1.124
21.36, -0.039, -10.109, 1.085
21.37, 0.0, -10.116, 1.124
21.38, -0.039, -10.116, 1.124
21.39, 0.0, -10.109, 1.085
21.4, 0.039, -10.103, 1.047
21.41, 0.039, -10.05, 0.976
21.42, 0.078, -10.109, 1.085
21.43, 0.039, -10.071, 1.092
21.44, 0.039, -10.039, 1.138
21.45, 0.039, -10.078, 1.131
21.46, 0.039, -10.039, 1.138
21.47, 0.039, -10.025, 1.06
21.48, 0.039, -10.059, 1.253
21.49, 0.0, -10.032, 1.099
21.5, 0.078, -10.007, 1.183
21.51, 0.039, -10.039, 1.138
21.52, 0.0, -10.078, 1.131
21.53, 0.0, -10.039, 1.138
21.54, 0.0, -10.057, 1.015
21.55, 0.0, -10.071, 1.092
21.56, 0.039, -10.046, 1.176
21.57, 0.039, -10.084, 1.169
21.58, 0.0, -10.109, 1.085
21.59, 0.0, -10.078, 1.131
21.6, 0.039, -10.039, 1.138
21.61, 0.0, -10.039, 1.138
21.62, 0.039, -10.039, 1.138
21.63, 0.039, -10.032, 1.099
21.64, 0.0, -10.032, 1.099
21.65, 0.0, -10.014, 1.222
21.66, 0.0, -10.032, 1.099
21.67, 0.0, -10.064, 1.053
21.68, -0.039, -10.091, 1.208
21.69, -0.039, -10.103, 1.047
21.7, -0.078, -10.064, 1.053
21.71, -0.078, -10.046, 1.176
21.72, -0.039, -10.091, 1.208
21.73, -0.039, -10.091, 1.208
21.74, 0.0, -10.046, 1.176
21.75, 0.0, -10.078, 1.131
21.76, 0.039, -10.084, 1.169
21.77, 0.039, -10.084, 1.169
21.78, 0.0, -10.053, 1.215
21.79, 0.039, -10.039, 1.138
21.8, 0.039, -10.053, 1.215
21.81, 0.078, -9.973, 0.99
21.82, 0.078, -10.078, 1.131
21.83, 0.0, -10.064, 1.053
21.84, 0.039, -10.091, 1.208
21.85, 0.039, -10.109, 1.085
21.86, 0.039, -10.123, 1.163
21.87, 0.039, -10.13, 1.201
21.88, 0.039, -10.194, 1.11
21.89, 0.039, -10.148, 1.079
21.9, 0.039, -10.109, 1.085
21.91, 0.039, -10.116, 1.124
21.92, 0.0, -10.084, 1.169
21.93, 0.0, -10.084, 1.169
21.94, 0.0, -10.046, 1.176
21.95, 0.039, -10.032, 1.099
21.96, 0.039, -10.032, 1.099
21.97, 0.039, -10.007, 1.183
21.98, -0.039, -10.0, 1.144
21.99, -0.039, -10.007, 1.183
22.0, -0.039, -10.032, 1.099
22.01, -0.039, -10.057, 1.015
22.02, -0.039, -10.025, 1.06
22.03, -0.039, -10.089, 0.969
22.04, 0.0, -10.128, 0.963
22.05, 0.0, -10.173, 0.994
22.06, 0.0, -10.134, 1.001
22.07, 0.039, -10.037, 0.899
22.08, 0.078, -9.987, 1.067
22.09, 0.118, -9.928, 0.958
22.1, 0.118, -9.941, 1.035
22.11, 0.118, -9.935, 0.997
22.12, 0.118, -10.0, 1.144
22.13, 0.118, -9.994, 1.106
22.14, 0.078, -10.064, 1.053
22.15, 0.0, -10.116, 1.124
22.16, -0.039, -10.155, 1.117
22.17, 0.0, -10.155, 1.117
22.18, 0.0, -10.148, 1.079
22.19, 0.0, -10.155, 1.117
22.2, 0.039, -10.123, 1.163
22.21, 0.0, -10.059, 1.253
22.22, 0.0, -10.028, 1.299
22.23, 0.039, -10.046, 1.176
22.24, 0.039, -10.034, 1.338
22.25, 0.078, -9.969, 1.19
22.26, 0.039, -10.014, 1.222
22.27, 0.039, -10.021, 1.26
22.28, 0.118, -10.046, 1.176
22.29, 0.118, -10.046, 1.176
22.3, 0.118, -10.073, 1.331
22.31, 0.078, -10.087, 1.408
22.32, 0.078, -10.059, 1.253
22.33, 0.039, -10.059, 1.253
22.34, -0.039, -10.091, 1.208
22.35, -0.039, -10.066, 1.292
22.36, -0.039, -10.098, 1.247
22.37, -0.078, -10.125, 1.401
22.38, -0.078, -10.125, 1.401
22.39, -0.078, -10.164, 1.394
22.4, -0.078, -10.105, 1.285
22.41, -0.118, -10.112, 1.324
22.42, -0.118, -10.073, 1.331
22.43, -0.118, -10.066, 1.292
22.44, -0.157, -10.041, 1.376
22.45, -0.157, -10.066, 1.292
22.46, -0.196, -10.098, 1.247
22.47, -0.157, -10.116, 1.124
22.48, -0.118, -10.141, 1.04
22.49, -0.078, -10.141, 1.04
22.5, -0.039, -10.155, 1.117
22.51, 0.0, -10.071, 1.092
22.52, 0.039, -9.994, 1.106
22.53, 0.078, -9.896, 1.003
22.54, 0.157, -9.825, 1.056
22.55, 0.196, -9.812, 0.978
22.56, 0.275, -9.91, 1.081
22.57, 0.314, -10.012, 0.983
22.58, 0.314, -10.037, 0.899
22.59, 0.314, -10.082, 0.931
22.6, 0.235, -10.05, 0.976
22.61, 0.314, -10.078, 1.131
22.62, 0.275, -10.039, 1.138
22.63, 0.235, -9.969, 1.19
22.64, 0.118, -9.878, 1.126
22.65, 0.078, -9.898, 1.242
22.66, 0.0, -9.944, 1.274
22.67, -0.078, -9.982, 1.267
22.68, -0.078, -10.021, 1.26
22.69, -0.157, -10.08, 1.369
22.7, -0.196, -10.034, 1.338
22.71, -0.275, -10.139, 1.478
22.72, -0.314, -10.153, 1.556
22.73, -0.471, -10.075, 1.569
22.74, -0.588, -10.062, 1.492
22.75, -0.588, -10.112, 1.324
22.76, -0.549, -10.132, 1.44
22.77, -0.628, -10.112, 1.324
22.78, -0.628, -10.178, 1.472
22.79, -0.628, -10.164, 1.394
22.8, -0.549, -10.08, 1.369
22.81, -0.471, -10.003, 1.383
22.82, -0.471, -9.919, 1.358
22.83, -0.392, -9.875, 1.565
22.84, -0.353, -9.862, 1.487
22.85, -0.314, -9.939, 1.474
22.86, -0.235, -9.95, 1.313
22.87, -0.196, -10.021, 1.26
22.88, -0.157, -10.032, 1.099
22.89, -0.118, -10.059, 1.253
22.9, -0.118, -10.021, 1.26
22.91, -0.078, -9.925, 1.397
22.92, -0.078, -9.894, 1.442
22.93, -0.118, -9.816, 1.456
22.94, -0.118, -9.791, 1.54
22.95, -0.157, -9.759, 1.585
22.96, -0.118, -9.862, 1.487
22.97, -0.118, -9.966, 1.628
22.98, -0.157, -10.05, 1.653
22.99, -0.157, -10.103, 1.724
23.0, -0.118, -10.132, 1.44
23.01, -0.157, -10.225, 1.742
23.02, -0.157, -10.18, 1.71
23.03, -0.235, -10.134, 1.678
23.04, -0.275, -10.13, 1.878
23.05, -0.275, -10.123, 1.84
23.06, -0.314, -10.137, 1.917
23.07, -0.353, -10.193, 1.787
23.08, -0.353, -10.246, 1.858
23.09, -0.431, -10.271, 1.774
23.1, -0.431, -10.232, 1.781
23.11, -0.392, -10.205, 1.626
23.12, -0.392, -10.121, 1.601
23.13, -0.392, -10.096, 1.685
23.14, -0.431, -10.069, 1.531
23.15, -0.392, -10.107, 1.524
23.16, -0.431, -10.1, 1.485
23.17, -0.392, -10.1, 1.485
23.18, -0.392, -10.055, 1.453
23.19, -0.392, -9.957, 1.351
23.2, -0.314, -9.834, 1.333
23.21, -0.314, -9.75, 1.308
23.22, -0.275, -9.687, 1.399
23.23, -0.196, -9.707, 1.515
23.24, -0.157, -9.7, 1.476
23.25, -0.157, -9.687, 1.399
23.26, -0.118, -9.694, 1.437
23.27, -0.118, -9.805, 1.617
23.28, -0.157, -9.85, 1.649
23.29, -0.196, -9.921, 1.597
23.3, -0.314, -9.973, 1.667
23.31, -0.275, -10.037, 1.576
23.32, -0.353, -10.109, 1.762
23.33, -0.353, -10.109, 1.762
23.34, -0.431, -10.084, 1.847
23.35, -0.431, -10.071, 1.769
23.36, -0.392, -10.155, 1.794
23.37, -0.431, -10.187, 1.749
23.38, -0.392, -10.168, 1.872
23.39, -0.392, -10.141, 1.717
23.4, -0.392, -10.266, 1.974
23.41, -0.431, -10.253, 1.897
23.42, -0.431, -10.166, 1.633
23.43, -0.431, -10.134, 1.678
23.44, -0.471, -10.089, 1.647
23.45, -0.431, -10.071, 1.769
23.46, -0.431, -9.998, 1.583
23.47, -0.431, -9.959, 1.59
23.48, -0.392, -9.896, 1.681
23.49, -0.353, -9.85, 1.649
23.5, -0.353, -9.844, 1.61
23.51, -0.275, -9.819, 1.694
23.52, -0.314, -9.85, 1.649
23.53, -0.275, -9.889, 1.642
23.54, -0.235, -9.889, 1.642
23.55, -0.235, -9.889, 1.642
23.56, -0.196, -9.871, 1.765
23.57, -0.157, -9.878, 1.803
23.58, -0.078, -9.896, 1.681
23.59, -0.078, -9.955, 1.79
23.6, -0.039, -9.941, 1.712
23.61, -0.078, -10.084, 1.847
23.62, -0.039, -10.141, 1.717
23.63, -0.078, -10.162, 1.833
23.64, -0.157, -10.155, 1.794
23.65, -0.118, -10.116, 1.801
23.66, -0.196, -10.134, 1.678
23.67, -0.235, -10.023, 1.499
23.68, -0.275, -10.025, 1.737
23.69, -0.235, -9.973, 1.667
23.7, -0.235, -9.973, 1.667
23.71, -0.196, -9.973, 1.667
23.72, -0.157, -9.966, 1.628
23.73, -0.157, -9.973, 1.667
23.74, -0.118, -9.973, 1.667
23.75, -0.118, -9.966, 1.628
23.76, -0.078, -9.953, 1.551
23.77, -0.118, -9.966, 1.628
23.78, -0.078, -9.984, 1.506
23.79, -0.039, -9.998, 1.583
23.8, 0.0, -9.998, 1.583
23.81, 0.0, -9.998, 1.583
23.82, 0.0, -9.966, 1.628
23.83, 0.039, -9.941, 1.712
23.84, 0.039, -9.934, 1.674
23.85, 0.0, -9.973, 1.667
23.86, 0.0, -10.091, 1.885
23.87, -0.078, -10.116, 1.801
23.88, -0.118, -10.18, 1.71
23.89, -0.196, -10.166, 1.633
23.9, -0.275, -10.18, 1.71
23.91, -0.353, -10.155, 1.794
23.92, -0.392, -10.109, 1.762
23.93, -0.431, -10.089, 1.647
23.94, -0.431, -10.048, 1.415
23.95, -0.392, -10.023, 1.499
23.96, -0.431, -10.003, 1.383
23.97, -0.431, -9.932, 1.435
23.98, -0.353, -9.894, 1.442
23.99, -0.275, -9.823, 1.494
24.0, -0.196, -9.83, 1.533
24.01, -0.196, -9.791, 1.54
24.02, -0.118, -9.784, 1.501
24.03, -0.078, -9.841, 1.372
24.04, -0.078, -9.894, 1.442
24.05, -0.039, -9.887, 1.403
24.06, -0.039, -9.873, 1.326
24.07, 0.039, -9.823, 1.494
24.08, 0.039, -9.764, 1.385
24.09, 0.039, -9.844, 1.61
24.1, 0.078, -9.784, 1.501
24.11, 0.157, -9.764, 1.385
24.12, 0.157, -9.83, 1.533
24.13, 0.157, -9.875, 1.565
24.14, 0.157, -9.973, 1.667
24.15, 0.078, -10.05, 1.653
24.16, 0.0, -10.128, 1.64
24.17, -0.039, -10.148, 1.756
24.18, -0.118, -10.18, 1.71
24.19, -0.157, -10.191, 1.549
24.2, -0.157, -10.18, 1.71
24.21, -0.196, -10.159, 1.594
24.22, -0.235, -10.082, 1.608
24.23, -0.196, -10.109, 1.762
24.24, -0.078, -10.103, 1.724
24.25, -0.118, -10.082, 1.608
24.26, -0.118, -10.064, 1.731
24.27, -0.118, -10.075, 1.569
24.28, -0.078, -10.043, 1.615
24.29, -0.078, -10.05, 1.653
24.3, -0.078, -9.959, 1.59
24.31, -0.118, -9.896, 1.681
24.32, -0.118, -9.889, 1.642
24.33, -0.118, -9.896, 1.681
24.34, -0.078, -9.921, 1.597
24.35, -0.078, -9.973, 1.667
24.36, -0.078, -10.012, 1.66
24.37, -0.078, -10.05, 1.653
24.38, -0.039, -10.05, 1.653
24.39, -0.039, -10.025, 1.737
24.4, 0.039, -9.98, 1.706
24.41, 0.039, -9.987, 1.744
24.42, 0.039, -9.98, 1.706
24.43, 0.0, -10.071, 1.769
24.44, 0.0, -10.109, 1.762
24.45, -0.039, -10.148, 1.756
24.46, -0.078, -10.134, 1.678
24.47, -0.157, -10.162, 1.833
24.48, -0.157, -10.103, 1.724
24.49, -0.118, -10.057, 1.692
24.5, -0.118, -10.057, 1.692
24.51, -0.118, -10.005, 1.622
24.52, -0.118, -9.928, 1.635
24.53, -0.039, -9.889, 1.642
24.54, 0.0, -9.875, 1.565
24.55, 0.0, -9.869, 1.526
24.56, 0.0, -9.85, 1.649
24.57, 0.0, -9.844, 1.61
24.58, 0.078, -9.857, 1.687
24.59, 0.078, -9.882, 1.603
24.6, 0.039, -9.85, 1.649
24.61, 0.0, -9.85, 1.649
24.62, -0.039, -9.921, 1.597
24.63, -0.039, -10.005, 1.622
24.64, -0.078, -10.082, 1.608
24.65, -0.118, -10.096, 1.685
24.66, -0.157, -10.134, 1.678
24.67, -0.157, -10.128, 1.64
24.68, -0.196, -10.075, 1.569
24.69, -0.157, -10.114, 1.563
24.7, -0.196, -10.089, 1.647
24.71, -0.157, -10.05, 1.653
24.72, -0.118, -10.012, 1.66
24.73, -0.118, -10.005, 1.622
24.74, -0.078, -9.964, 1.39
24.75, -0.078, -9.998, 1.583
24.76, -0.039, -9.953, 1.551
24.77, -0.039, -9.959, 1.59
24.78, 0.0, -9.953, 1.551
24.79, 0.039, -9.914, 1.558
24.8, 0.0, -9.862, 1.487
24.81, 0.039, -9.921, 1.597
24.82, 0.039, -9.928, 1.635
24.83, 0.0, -9.946, 1.512
24.84, 0.0, -9.946, 1.512
24.85, 0.039, -9.998, 1.583
24.86, 0.039, -9.991, 1.544
24.87, 0.0, -10.075, 1.569
24.88, 0.039, -10.03, 1.537
24.89, 0.039, -10.055, 1.453
24.9, 0.039, -10.094, 1.447
24.91, 0.078, -10.069, 1.531
24.92, 0.078, -10.037, 1.576
24.93, 0.039, -10.03, 1.537
24.94, 0.039, -9.984, 1.506
24.95, 0.0, -10.03, 1.537
24.96, -0.039, -10.023, 1.499
24.97, 0.0, -10.075, 1.569
24.98, -0.039, -10.055, 1.453
24.99, 0.0, -10.037, 1.576
25.0, -0.039, -9.984, 1.506
25.01, 0.0, -10.037, 1.576
25.02, -0.039, -10.043, 1.615
25.03, -0.039, -10.062, 1.492
25.04, -0.039, -10.062, 1.492
25.05, 0.0, -10.023, 1.499
25.06, 0.0, -10.05, 1.653
25.07, -0.039, -10.023, 1.499
25.08, 0.0, -9.984, 1.506
25.09, 0.0, -9.953, 1.551
25.1, 0.0, -9.953, 1.551
25.11, 0.0, -9.953, 1.551
25.12, 0.0, -10.03, 1.537
25.13, 0.0, -10.023, 1.499
25.14, -0.039, -9.998, 1.583
25.15, -0.039, -9.953, 1.551
25.16, -0.039, -9.875, 1.565
25.17, -0.039, -9.991, 1.544
25.18, -0.078, -9.998, 1.583
25.19, -0.039, -9.966, 1.628
25.2, -0.078, -9.998, 1.583
25.21, -0.078, -10.018, 1.699
25.22, -0.039, -10.037, 1.576
25.23, -0.078, -9.978, 1.467
25.24, -0.039, -9.998, 1.583
25.25, -0.039, -10.012, 1.66
25.26, -0.039, -10.005, 1.622
25.27, -0.039, -9.966, 1.628
25.28, 0.0, -10.012, 1.66
25.29, -0.039, -10.057, 1.692
25.3, -0.078, -10.082, 1.608
25.31, -0.118, -10.128, 1.64
25.32, -0.039, -10.096, 1.685
25.33, -0.039, -10.114, 1.563
25.34, -0.039, -10.191, 1.549
25.35, 0.039, -10.159, 1.594
25.36, 0.078, -10.128, 1.64
25.37, 0.118, -10.146, 1.517
25.38, 0.078, -10.107, 1.524
25.39, 0.039, -10.139, 1.478
25.4, 0.039, -10.125, 1.401
25.41, 0.078, -10.094, 1.447
25.42, -0.039, -10.066, 1.292
25.43, -0.039, -10.055, 1.453
25.44, -0.118, -10.016, 1.46
25.45, -0.118, -10.009, 1.422
25.46, -0.157, -10.055, 1.453
25.47, -0.118, -10.034, 1.338
25.48, -0.157, -10.055, 1.453
25.49, -0.157, -10.034, 1.338
25.5, -0.196, -10.08, 1.369
25.51, -0.157, -10.059, 1.253
25.52, -0.118, -10.028, 1.299
25.53, -0.118, -10.034, 1.338
25.54, -0.118, -10.021, 1.26
25.55, -0.157, -10.034, 1.338
25.56, -0.157, -10.059, 1.253
25.57, -0.118, -10.053, 1.215
25.58, -0.078, -10.053, 1.215
25.59, -0.039, -10.007, 1.183
25.6, -0.039, -9.969, 1.19
25.61, -0.039, -9.962, 1.151
25.62, -0.039, -9.962, 1.151
25.63, -0.039, -9.962, 1.151
25.64, 0.0, -9.955, 1.113
25.65, 0.0, -9.941, 1.035
25.66, 0.0, -9.962, 1.151
25.67, -0.039, -10.0, 1.144
25.68, -0.078, -10.078, 1.131
25.69, -0.078, -10.137, 1.24
25.7, -0.078, -10.157, 1.356
25.71, -0.118, -10.109, 1.085
25.72, -0.157, -10.109, 1.085
25.73, -0.118, -10.116, 1.124
25.74, -0.157, -10.039, 1.138
25.75, -0.157, -10.039, 1.138
25.76, -0.078, -9.948, 1.074
25.77, -0.078, -9.987, 1.067
25.78, -0.078, -9.948, 1.074
25.79, -0.039, -9.948, 1.074
25.8, -0.078, -9.98, 1.028
25.81, -0.078, -9.987, 1.067
25.82, -0.078, -10.044, 0.938
25.83, -0.078, -9.991, 0.867
25.84, -0.039, -10.044, 0.938
25.85, 0.0, -10.03, 0.86
25.86, 0.039, -10.044, 0.938
25.87, 0.039, -10.057, 1.015
25.88, 0.039, -10.005, 0.944
25.89, 0.039, -9.998, 0.906
25.9, 0.039, -10.005, 0.944
25.91, -0.039, -10.044, 0.938
25.92, -0.078, -10.05, 0.976
25.93, -0.039, -9.985, 0.829
25.94, -0.039, -10.023, 0.822
25.95, 0.039, -10.089, 0.969
25.96, -0.078, -10.023, 0.822
25.97, -0.039, -10.03, 0.86
25.98, -0.039, -10.069, 0.854
25.99, -0.078, -10.069, 0.854
26.0, -0.118, -10.082, 0.931
26.01, -0.118, -10.062, 0.815
26.02, -0.078, -10.03, 0.86
26.03, -0.078, -10.044, 0.938
26.04, -0.078, -10.005, 0.944
26.05, -0.039, -9.966, 0.951
26.06, 0.0, -9.966, 0.951
26.07, 0.0, -10.019, 1.022
26.08, 0.039, -10.019, 1.022
26.09, 0.039, -10.005, 0.944
26.1, 0.078, -10.005, 0.944
26.11, 0.039, -10.071, 1.092
26.12, 0.0, -10.096, 1.008
26.13, 0.0, -10.109, 1.085
26.14, -0.078, -10.155, 1.117
26.15, -0.078, -10.116, 1.124
26.16, -0.157, -10.096, 1.008
26.17, -0.157, -10.103, 1.047
26.18, -0.157, -10.116, 1.124
26.19, -0.157, -10.05, 0.976
26.2, -0.157, -10.064, 1.053
26.21, -0.157, -10.057, 1.015
26.22, -0.118, -9.975, 1.228
26.23, -0.078, -9.948, 1.074
26.24, -0.078, -9.994, 1.106
26.25, -0.118, -9.98, 1.028
26.26, -0.118, -10.0, 1.144
26.27, -0.118, -9.962, 1.151
26.28, -0.078, -9.987, 1.067
26.29, -0.078, -10.007, 1.183
26.3, -0.039, -10.007, 1.183
26.31, -0.039, -10.007, 1.183
26.32, -0.039, -9.982, 1.267
26.33, 0.0, -9.898, 1.242
26.34, -0.039, -9.873, 1.326
26.35, 0.0, -9.887, 1.403
26.36, 0.0, -9.919, 1.358
26.37, -0.039, -9.957, 1.351
26.38, -0.078, -10.009, 1.422
26.39, -0.078, -10.016, 1.46
26.4, -0.078, -10.048, 1.415
26.41, -0.118, -10.003, 1.383
26.42, -0.118, -10.009, 1.422
26.43, -0.157, -9.998, 1.583
26.44, -0.118, -9.984, 1.506
26.45, -0.118, -10.005, 1.622
26.46, -0.078, -10.064, 1.731
26.47, -0.078, -10.064, 1.731
26.48, -0.078, -10.116, 1.801
26.49, -0.039, -10.075, 1.569
26.5, -0.078, -10.064, 1.731
26.51, -0.078, -10.005, 1.622
26.52, -0.039, -9.941, 1.712
26.53, -0.039, -9.934, 1.674
26.54, 0.0, -9.993, 1.783
26.55, 0.0, -10.0, 1.822
26.56, 0.0, -10.021, 1.937
26.57, 0.0, -10.053, 1.892
26.58, -0.039, -10.014, 1.899
26.59, -0.039, -9.982, 1.944
26.6, 0.0, -9.975, 1.906
26.61, -0.039, -9.957, 2.028
26.62, -0.039, -9.932, 2.112
26.63, 0.0, -9.953, 2.228
26.64, -0.039, -9.964, 2.067
26.65, -0.039, -9.907, 2.196
26.66, -0.078, -9.925, 2.074
26.67, -0.078, -9.88, 2.042
26.68, -0.118, -9.88, 2.042
26.69, -0.118, -9.828, 1.971
26.7, -0.078, -9.828, 1.971
26.71, -0.078, -9.862, 2.165
26.72, -0.078, -9.778, 2.14
26.73, -0.078, -9.784, 2.178
26.74, -0.039, -9.707, 2.192
26.75, -0.118, -9.759, 2.262
26.76, -0.078, -9.741, 2.385
26.77, -0.118, -9.682, 2.276
26.78, -0.078, -9.689, 2.315
26.79, -0.078, -9.734, 2.346
26.8, -0.118, -9.734, 2.346
26.81, -0.157, -9.839, 2.487
26.82, -0.157, -9.812, 2.333
26.83, -0.157, -9.916, 2.474
26.84, -0.118, -9.93, 2.551
26.85, -0.157, -9.962, 2.506
26.86, -0.157, -9.968, 2.544
26.87, -0.196, -10.007, 2.537
26.88, -0.196, -10.021, 2.615
26.89, -0.196, -10.007, 2.537
26.9, -0.235, -9.943, 2.628
26.91, -0.196, -9.982, 2.621
26.92, -0.196, -9.884, 2.519
26.93, -0.157, -9.905, 2.635
26.94, -0.118, -9.852, 2.565
26.95, -0.157, -9.866, 2.642
26.96, -0.118, -9.866, 2.642
26.97, -0.157, -9.891, 2.558
26.98, -0.157, -9.846, 2.526
26.99, -0.157, -9.905, 2.635
27.0, -0.196, -9.943, 2.628
27.01, -0.275, -9.975, 2.583
27.02, -0.314, -9.937, 2.59
27.03, -0.392, -9.937, 2.59
27.04, -0.392, -9.93, 2.551
27.05, -0.431, -9.93, 2.551
27.06, -0.431, -9.968, 2.544
27.07, -0.392, -9.943, 2.628
27.08, -0.431, -9.877, 2.48
27.09, -0.471, -9.884, 2.519
27.1, -0.471, -9.891, 2.558
27.11, -0.471, -9.852, 2.565
27.12, -0.431, -9.884, 2.519
27.13, -0.353, -9.839, 2.487
27.14, -0.314, -9.814, 2.571
27.15, -0.235, -9.814, 2.571
27.16, -0.235, -9.821, 2.61
27.17, -0.157, -9.866, 2.642
27.18, -0.157, -9.852, 2.565
27.19, -0.118, -9.891, 2.558
27.2, -0.157, -9.898, 2.596
27.21, -0.118, -9.905, 2.635
27.22, -0.157, -9.846, 2.526
27.23, -0.157, -9.821, 2.61
27.24, -0.196, -9.807, 2.533
27.25, -0.235, -9.73, 2.546
27.26, -0.235, -9.762, 2.501
27.27, -0.235, -9.782, 2.617
27.28, -0.275, -9.841, 2.726
27.29, -0.314, -9.873, 2.68
27.3, -0.353, -9.905, 2.635
27.31, -0.353, -9.898, 2.596
27.32, -0.392, -9.821, 2.61
27.33, -0.431, -9.768, 2.54
27.34, -0.431, -9.709, 2.43
27.35, -0.471, -9.709, 2.43
27.36, -0.431, -9.709, 2.43
27.37, -0.431, -9.716, 2.469
27.38, -0.431, -9.807, 2.533
27.39, -0.431, -9.839, 2.487
27.4, -0.431, -9.891, 2.558
27.41, -0.431, -9.877, 2.48
27.42, -0.431, -9.903, 2.396
27.43, -0.471, -9.852, 2.565
27.44, -0.392, -9.8, 2.494
27.45, -0.353, -9.793, 2.455
27.46, -0.353, -9.846, 2.526
27.47, -0.353, -9.839, 2.487
27.48, -0.353, -9.814, 2.571
27.49, -0.353, -9.891, 2.558
27.5, -0.314, -9.948, 2.428
27.51, -0.353, -9.955, 2.467
27.52, -0.353, -9.955, 2.467
27.53, -0.392, -9.98, 2.383
27.54, -0.392, -10.039, 2.492
27.55, -0.431, -10.007, 2.537
27.56, -0.431, -9.966, 2.306
27.57, -0.431, -9.959, 2.267
27.58, -0.431, -10.064, 2.408
27.59, -0.51, -10.039, 2.492
27.6, -0.51, -10.012, 2.337
27.61, -0.51, -9.991, 2.221
27.62, -0.549, -10.012, 2.337
27.63, -0.588, -10.05, 2.331
27.64, -0.549, -10.043, 2.292
27.65, -0.549, -10.043, 2.292
27.66, -0.549, -9.991, 2.221
27.67, -0.51, -10.037, 2.253
27.68, -0.549, -10.121, 2.278
27.69, -0.549, -10.08, 2.047
27.7, -0.549, -10.068, 2.208
27.71, -0.51, -10.068, 2.208
27.72, -0.471, -9.984, 2.183
27.73, -0.51, -9.939, 2.151
27.74, -0.471, -9.88, 2.042
27.75, -0.471, -9.809, 2.094
27.76, -0.431, -9.809, 2.094
27.77, -0.471, -9.764, 2.062
27.78, -0.471, -9.789, 1.978
27.79, -0.431, -9.782, 1.94
27.8, -0.392, -9.769, 1.862
27.81, -0.431, -9.755, 1.785
